Milliseconds,GyroX,GyroY,GyroZ
0,0.551797603195739,-0.23302263648468707,0.35605858854860184
2.5510204081632653,0.5414114513981358,-0.2870838881491345,0.40346205059920104
5.1020408163265305,0.5049267643142477,-0.3155792276964048,0.45459387483355523
7.653061224489796,0.4655126498002663,-0.3267643142476698,0.4684420772303595
10.204081632653061,0.4197070572569907,-0.3374167776298269,0.4780292942743009
12.755102040816325,0.3709720372836218,-0.32170439414114516,0.44793608521970707
15.306122448979592,0.3171770972037284,-0.2910785619174434,0.42023968042609855
17.857142857142858,0.26524633821571236,-0.23621837549933422,0.3544607190412783
20.408163265306122,0.2159786950732357,-0.18801597869507325,0.2918774966711052
22.959183673469386,0.18801597869507325,-0.10785619174434088,0.2322237017310253
25.51020408163265,0.13262316910785618,-0.03781624500665779,0.15579227696404793
28.06122448979592,0.08868175765645805,0.05166444740346205,0.08841544607190413
30.612244897959183,0.06764314247669774,0.13581890812250333,0.03861517976031957
33.16326530612245,0.04633821571238349,0.18721704394141145,-0.013049267643142477
35.714285714285715,0.019973368841544607,0.25139813581890813,-0.045272969374167776
38.265306122448976,0.029027962716378163,0.28495339547270304,-0.05619174434087883
40.816326530612244,0.03754993342210386,0.3137150466045273,-0.055126498002663116
43.36734693877551,0.06551264980026632,0.3246338215712383,-0.04766977363515313
45.91836734693877,0.09267643142476698,0.34913448735019975,-0.034354194407456726
48.46938775510204,0.10838881491344873,0.3659121171770972,-0.019973368841544607
51.0204081632653,0.13288948069241013,0.37390146471371505,0.004260985352862849
53.57142857142857,0.16511318242343542,0.38162450066577897,0.029826897470039946
56.12244897959184,0.2047936085219707,0.38615179760319573,0.06231691078561918
58.6734693877551,0.23914780292942742,0.38348868175765644,0.08415446071904129
61.224489795918366,0.26311584553928097,0.35872170439414114,0.09800266311584555
63.775510204081634,0.29800266311584556,0.3747003994673768,0.10679094540612516
66.3265306122449,0.32916111850865515,0.36165113182423436,0.1107856191744341
68.87755102040816,0.3478029294274301,0.3472703062583222,0.10119840213049268
71.42857142857143,0.3659121171770972,0.329693741677763,0.10039946737683089
73.9795918367347,0.36431424766977366,0.30865512649800264,0.10359520639147803
76.53061224489795,0.3680426098535286,0.2892143808255659,0.09400798934753662
79.08163265306122,0.34247669773635153,0.2756324900133156,0.07989347536617843
81.63265306122449,0.32010652463382155,0.2633821571238349,0.06284953395472703
84.18367346938776,0.3046604527296937,0.2474034620505992,0.03382157123834887
86.73469387755102,0.2660452729693742,0.22956058588548603,0.012782956058588549
89.28571428571428,0.23675099866844207,0.20532623169107855,-0.012782956058588549
91.83673469387755,0.18828229027962717,0.17416777629826896,-0.03941411451398136
94.38775510204081,0.13981358189081225,0.1430093209054594,-0.07350199733688416
96.93877551020408,0.11158455392809587,0.11744340878828229,-0.10679094540612516
99.48979591836735,0.07083888149134487,0.09747003994673768,-0.1355525965379494
102.0408163265306,0.06577896138482024,0.08708388814913448,-0.162982689747004
104.59183673469387,0.05645805592543276,0.09693741677762982,-0.18508655126498003
107.14285714285714,0.04980026631158455,0.09187749667110519,-0.1896138482023968
109.6938775510204,0.040745672436751,0.10173102529960053,-0.20798934753661785
112.24489795918367,0.038348868175765646,0.11664447403462051,-0.2151797603195739
114.79591836734694,0.018109187749667112,0.13688415446071905,-0.2351531291611185
117.3469387755102,0.003195739014647137,0.13448735019973368,-0.25938748335552597
119.89795918367346,-0.01544607190412783,0.14434087882822902,-0.27430093209054596
122.44897959183673,-0.038348868175765646,0.1467376830892144,-0.2993342210386152
125,-0.05619174434087883,0.15952063914780293,-0.31131824234354194
127.55102040816327,-0.0729693741677763,0.16750998668442077,-0.32782956058588547
130.10204081632654,-0.08442077230359521,0.16910785619174434,-0.3456724367509987
132.6530612244898,-0.11025299600532623,0.17976031957390146,-0.3483355525965379
135.20408163265307,-0.12063914780292943,0.1773635153129161,-0.3520639147802929
137.75510204081633,-0.1499334221038615,0.1723035952063915,-0.36351531291611183
140.30612244897958,-0.1659121171770972,0.15765645805592543,-0.36165113182423436
142.85714285714286,-0.18988015978695072,0.166711051930759,-0.35126498002663115
145.40816326530611,-0.20319573901464713,0.15765645805592543,-0.35659121171770974
147.9591836734694,-0.22423435419440746,0.14141145139813582,-0.3525965379494008
150.51020408163265,-0.22689747003994673,0.13288948069241013,-0.3571238348868176
153.0612244897959,-0.22450066577896138,0.13129161118508656,-0.35392809587217045
155.6122448979592,-0.23541944074567245,0.1278295605858855,-0.325965379494008
158.16326530612244,-0.23834886817576564,0.12463382157123835,-0.3083888149134487
160.71428571428572,-0.2548601864181092,0.11744340878828229,-0.30679094540612517
163.26530612244898,-0.2673768308921438,0.08974700399467377,-0.30492676431424764
165.81632653061223,-0.2892143808255659,0.07163781624500666,-0.299866844207723
168.3673469387755,-0.3137150466045273,0.05193075898801598,-0.29267643142476696
170.91836734693877,-0.33528628495339546,0.024766977363515314,-0.2969374167776298
173.46938775510205,-0.36058588548601866,0.019973368841544607,-0.2721704394141145
176.0204081632653,-0.3930758988015979,0.010386151797603195,-0.24607190412782956
178.57142857142856,-0.40745672436750996,0.00559254327563249,-0.2237017310252996
181.12244897959184,-0.43089214380825563,-0.021571238348868177,-0.2066577896138482
183.6734693877551,-0.44234354194407455,-0.027163781624500664,-0.17842876165113183
186.22448979591837,-0.4692410119840213,-0.03275632490013316,-0.1478029294274301
188.77551020408163,-0.503861517976032,-0.03089214380825566,-0.12756324900133156
191.32653061224488,-0.5350199733688416,-0.02822902796271638,-0.11531291611185086
193.87755102040816,-0.5938748335552596,-0.041011984021304924,-0.0948069241011984
196.42857142857142,-0.651930758988016,-0.036218375499334224,-0.08575233022636485
198.9795918367347,-0.696138482023968,-0.030093209054593874,-0.06018641810918775
201.53061224489795,-0.7560585885486019,-0.026098535286284953,-0.04447403462050599
204.0816326530612,-0.8050599201065246,-0.025565912117177098,-0.03062583222370173
206.6326530612245,-0.8380825565912117,-0.03062583222370173,-0.0039946737683089215
209.18367346938774,-0.8833555259653795,-0.022103861517976033,0.0010652463382157123
211.73469387755102,-0.9214380825565912,-0.02529960053262317,0.005326231691078562
214.28571428571428,-0.9533954727030626,-0.024234354194407455,0.008788282290279626
216.83673469387756,-0.9709720372836218,-0.027163781624500664,0.017576564580559253
219.3877551020408,-0.9856191744340879,-0.022636484687083888,0.023169107856191744
221.93877551020407,-0.9920106524633822,-0.0039946737683089215,0.03781624500665779
224.48979591836735,-0.9731025299600533,0.0010652463382157123,0.03568575233022637
227.0408163265306,-0.9573901464713716,-0.007190412782956059,0.044207723035952065
229.59183673469389,-0.9400798934753661,-0.0018641810918774966,0.03595206391478029
232.14285714285714,-0.9174434087882823,0.006657789613848202,0.03754993342210386
234.6938775510204,-0.884953395472703,-0.015712383488681758,0.04553928095872171
237.24489795918367,-0.8362183754993342,-0.019174434087882823,0.029560585885486018
239.79591836734693,-0.7736351531291611,-0.0151797603195739,0.02529960053262317
242.3469387755102,-0.7129161118508656,-0.02237017310252996,0.017842876165113184
244.89795918367346,-0.6279627163781625,-0.027696404793608524,0.026897470039946737
247.44897959183672,-0.5496671105193076,-0.037283621837549935,0.018109187749667112
250,-0.4529960053262317,-0.014647137150466045,0.007989347536617843
252.55102040816325,-0.3685752330226365,-0.020239680426098534,0.013315579227696404
255.10204081632654,-0.3030625832223702,-0.017310252996005325,0.0002663115845539281
257.6530612244898,-0.2237017310252996,-0.025832223701731025,-0.014380825565912117
260.2040816326531,-0.14886817576564582,-0.05752330226364847,-0.02130492676431425
262.7551020408163,-0.05965379494007989,-0.056990679094540614,-0.004793608521970706
265.3061224489796,0.038082556591211715,-0.034354194407456726,-0.023169107856191744
267.85714285714283,0.16165113182423435,-0.041278295605858856,-0.043941411451398134
270.40816326530614,0.28149134487350197,-0.0492676431424767,-0.029027962716378163
272.9591836734694,0.39174434087882826,-0.03568575233022637,-0.04340878828229028
275.51020408163265,0.49613848202396804,-0.05645805592543276,-0.05858854860186418
278.0612244897959,0.5984021304926764,-0.041278295605858856,-0.029826897470039946
280.61224489795916,0.6785619174434088,-0.034354194407456726,-0.054860186418109184
283.16326530612247,0.7443408788282291,-0.017043941411451397,-0.05565912117177097
285.7142857142857,0.79254327563249,-0.01837549933422104,-0.04154460719041278
288.265306122449,0.8173102529960053,-0.0074567243675099865,-0.050865512649800264
290.81632653061223,0.8386151797603196,-0.0237017310252996,-0.06844207723035953
293.3673469387755,0.8362183754993342,-0.022103861517976033,-0.05432756324900133
295.9183673469388,0.8250332889480693,-0.03062583222370173,-0.06444740346205059
298.46938775510205,0.80745672436751,-0.03195739014647137,-0.06977363515312916
301.0204081632653,0.7824234354194407,-0.024766977363515314,-0.06498002663115846
303.57142857142856,0.751531291611185,-0.030093209054593874,-0.06764314247669774
306.1224489795918,0.7089214380825566,-0.03595206391478029,-0.07350199733688416
308.6734693877551,0.6713715046604527,-0.027696404793608524,-0.06151797603195739
311.2244897959184,0.6386151797603196,-0.03115845539280959,-0.06311584553928096
313.7755102040816,0.5922769640479361,-0.03382157123834887,-0.06577896138482024
316.3265306122449,0.5525965379494008,-0.026098535286284953,-0.05938748335552597
318.87755102040813,0.5153129161118508,-0.03595206391478029,-0.05379494007989347
321.42857142857144,0.4758988015978695,-0.04181091877496671,-0.05938748335552597
323.9795918367347,0.43089214380825563,-0.03914780292942743,-0.054860186418109184
326.53061224489795,0.3856191744340879,-0.04340878828229028,-0.06364846870838882
329.0816326530612,0.3283621837549933,-0.03568575233022637,-0.06444740346205059
331.63265306122446,0.26418109187749667,-0.05059920106524634,-0.047936085219707054
334.18367346938777,0.2095872170439414,-0.05938748335552597,-0.03675099866844208
336.734693877551,0.14647137150466044,-0.06684420772303595,-0.044207723035952065
339.2857142857143,0.07723035952063914,-0.07190412782956059,-0.037283621837549935
341.83673469387753,0.029560585885486018,-0.08548601864181092,-0.02796271637816245
344.3877551020408,-0.02663115845539281,-0.09214380825565913,-0.0237017310252996
346.9387755102041,-0.07057256990679095,-0.10625832223701731,-0.016245006657789614
349.48979591836735,-0.11770972037283622,-0.09214380825565913,0.0005326231691078562
352.0408163265306,-0.14327563249001332,-0.10625832223701731,0.009587217043941412
354.59183673469386,-0.1648468708388815,-0.09214380825565913,0.02130492676431425
357.1428571428571,-0.20399467376830893,-0.09081225033288948,0.03595206391478029
359.6938775510204,-0.20878828229027963,-0.09613848202396805,0.04474034620505992
362.2448979591837,-0.2428761651131824,-0.08468708388814913,0.05272969374167776
364.7959183673469,-0.27243675099866843,-0.07243675099866845,0.05539280958721705
367.3469387755102,-0.3083888149134487,-0.081491344873502,0.05938748335552597
369.89795918367344,-0.33661784287616514,-0.08575233022636485,0.0758988015978695
372.44897959183675,-0.3736351531291611,-0.07829560585885487,0.09320905459387484
375,-0.4095872170439414,-0.07723035952063914,0.10173102529960053
377.55102040816325,-0.43754993342210385,-0.05992010652463382,0.1137150466045273
380.1020408163265,-0.4617842876165113,-0.06364846870838882,0.12836218375499334
382.65306122448976,-0.48868175765645805,-0.06870838881491345,0.1430093209054594
385.2040816326531,-0.5081225033288949,-0.057789613848202394,0.14727030625832224
387.7551020408163,-0.5081225033288949,-0.07456724367509987,0.15605858854860186
390.3061224489796,-0.49747003994673766,-0.05193075898801598,0.15659121171770973
392.85714285714283,-0.47270306258322237,-0.052197070572569906,0.16564580559254327
395.4081632653061,-0.43275632490013316,-0.043142476697736354,0.16458055925432757
397.9591836734694,-0.3792276964047936,-0.044207723035952065,0.1573901464713715
400.51020408163265,-0.3235685752330226,-0.038348868175765646,0.1573901464713715
403.0612244897959,-0.2836218375499334,-0.020239680426098534,0.16085219707057258
405.61224489795916,-0.2215712383488682,-0.017842876165113184,0.15978695073235685
408.1632653061224,-0.17097203728362184,-0.02077230359520639,0.15765645805592543
410.7142857142857,-0.12623169107856191,-0.026897470039946737,0.1611185086551265
413.265306122449,-0.085219707057257,-0.02077230359520639,0.1696404793608522
415.81632653061223,-0.05299600532623169,-0.024500665778961386,0.1685752330226365
418.3673469387755,-0.021837549933422105,-0.024766977363515314,0.1648468708388815
420.9183673469388,0.010386151797603195,-0.02077230359520639,0.17310252996005326
423.46938775510205,0.026897470039946737,-0.01677762982689747,0.1896138482023968
426.0204081632653,0.050865512649800264,-0.009320905459387484,0.170439414114514
428.57142857142856,0.06338215712383488,-0.021571238348868177,0.18561917443408787
431.1224489795918,0.07270306258322237,-0.017310252996005325,0.1970705725699068
433.6734693877551,0.077762982689747,-0.02636484687083888,0.19387483355525964
436.2244897959184,0.06125166444740346,-0.025832223701731025,0.20133155792276963
438.7755102040816,0.047936085219707054,-0.04447403462050599,0.21384820239680427
441.3265306122449,0.027430093209054592,-0.03462050599201065,0.2178428761651132
443.87755102040813,0.004527296937416778,-0.024766977363515314,0.21864181091877496
446.42857142857144,-0.01677762982689747,-0.028495339547270307,0.2151797603195739
448.9795918367347,-0.05645805592543276,-0.0303595206391478,0.2159786950732357
451.53061224489795,-0.1033288948069241,-0.04287616511318242,0.20932090545938747
454.0816326530612,-0.1422103861517976,-0.041011984021304924,0.21384820239680427
456.63265306122446,-0.19067909454061252,-0.055126498002663116,0.2029294274300932
459.18367346938777,-0.2303595206391478,-0.06897470039946738,0.18801597869507325
461.734693877551,-0.27057256990679096,-0.06577896138482024,0.19307589880159787
464.2857142857143,-0.3137150466045273,-0.07643142476697737,0.19494007989347537
466.83673469387753,-0.34513981358189083,-0.0948069241011984,0.18189081225033288
469.3877551020408,-0.36165113182423436,-0.1137150466045273,0.17256990679094542
471.9387755102041,-0.3747003994673768,-0.1278295605858855,0.15978695073235685
474.48979591836735,-0.37496671105193075,-0.1422103861517976,0.1525965379494008
477.0408163265306,-0.38135818908122504,-0.15419440745672436,0.1459387483355526
479.59183673469386,-0.35392809587217045,-0.15952063914780293,0.12649800266311584
482.1428571428571,-0.351797603195739,-0.17177097203728361,0.12569906790945407
484.6938775510204,-0.33049267643142477,-0.17976031957390146,0.1137150466045273
487.2448979591837,-0.3099866844207723,-0.17976031957390146,0.09507323568575234
489.7959183673469,-0.3011984021304927,-0.1904127829560586,0.0948069241011984
492.3469387755102,-0.28575233022636487,-0.18375499334221038,0.08841544607190413
494.89795918367344,-0.2788282290279627,-0.1885486018641811,0.07217043941411451
497.44897959183675,-0.26684420772303596,-0.18348868175765645,0.06524633821571238
500,-0.26391478029294274,-0.1933422103861518,0.05645805592543276
502.55102040816325,-0.25645805592543275,-0.1885486018641811,0.05193075898801598
505.1020408163265,-0.24873501997336883,-0.1840213049267643,0.03968042609853529
507.65306122448976,-0.24580559254327564,-0.18508655126498003,0.043142476697736354
510.2040816326531,-0.2508655126498003,-0.1829560585885486,0.025832223701731025
512.7551020408163,-0.2447403462050599,-0.16937416777629827,0.026897470039946737
515.3061224489796,-0.2359520639147803,-0.16165113182423435,0.022103861517976033
517.8571428571429,-0.22023968042609854,-0.15233022636484686,0.018641810918774968
520.4081632653061,-0.21944074567243674,-0.14194407456724367,0.014380825565912117
522.9591836734694,-0.20505992010652463,-0.14886817576564582,0.01944074567243675
525.5102040816327,-0.19440745672436752,-0.1347536617842876,0.014913448735019973
528.0612244897959,-0.17123834886817577,-0.12543275632490014,0.0237017310252996
530.6122448979592,-0.16750998668442077,-0.11131824234354194,0.02796271637816245
533.1632653061224,-0.13874833555259652,-0.10013315579227697,0.037283621837549935
535.7142857142857,-0.13821571238348868,-0.08894806924101198,0.03382157123834887
538.2653061224489,-0.12676431424766976,-0.07563249001331558,0.04154460719041278
540.8163265306123,-0.11984021304926765,-0.07403462050599201,0.06018641810918775
543.3673469387755,-0.10679094540612516,-0.05193075898801598,0.05432756324900133
545.9183673469388,-0.09533954727030626,-0.03462050599201065,0.06817576564580559
548.469387755102,-0.07350199733688416,-0.02077230359520639,0.07882822902796272
551.0204081632653,-0.05246338215712384,-0.010918774966711052,0.08868175765645805
553.5714285714286,-0.019973368841544607,-0.0034620505992010654,0.0966711051930759
556.1224489795918,0.007723035952063915,0.007190412782956059,0.09613848202396805
558.6734693877551,0.040213049267643144,0.010918774966711052,0.09374167776298269
561.2244897959183,0.07217043941411451,0.02636484687083888,0.09054593874833555
563.7755102040816,0.10066577896138482,0.03195739014647137,0.08841544607190413
566.3265306122449,0.13342210386151798,0.04580559254327563,0.09081225033288948
568.8775510204082,0.1723035952063915,0.05565912117177097,0.09427430093209055
571.4285714285714,0.19760319573901464,0.05539280958721705,0.08894806924101198
573.9795918367347,0.2237017310252996,0.06844207723035953,0.09640479360852197
576.530612244898,0.23302263648468707,0.07270306258322237,0.08788282290279627
579.0816326530612,0.25139813581890813,0.07829560585885487,0.10226364846870839
581.6326530612245,0.2697736351531292,0.08708388814913448,0.0985352862849534
584.1836734693877,0.26657789613848204,0.09134487350199734,0.09906790945406126
586.734693877551,0.27509986684420773,0.09107856191744342,0.10359520639147803
589.2857142857142,0.25912117177097205,0.09427430093209055,0.10572569906790945
591.8367346938776,0.25805592543275635,0.09747003994673768,0.10252996005326231
594.3877551020408,0.2644474034620506,0.09454061251664447,0.11025299600532623
596.9387755102041,0.2535286284953395,0.09454061251664447,0.10013315579227697
599.4897959183673,0.24900133155792276,0.09693741677762982,0.09693741677762982
602.0408163265306,0.23834886817576564,0.09427430093209055,0.0929427430093209
604.5918367346939,0.2284953395472703,0.08868175765645805,0.08655126498002663
607.1428571428571,0.21358189081225032,0.07882822902796272,0.08415446071904129
609.6938775510204,0.18801597869507325,0.07403462050599201,0.08069241011984021
612.2448979591836,0.17683089214380826,0.0711051930758988,0.08548601864181092
614.7959183673469,0.15632490013315578,0.06577896138482024,0.07696404793608522
617.3469387755102,0.14460719041278294,0.05645805592543276,0.07616511318242343
619.8979591836735,0.12410119840213049,0.04873501997336884,0.07350199733688416
622.4489795918367,0.10758988015978695,0.047137150466045274,0.07456724367509987
625,0.10066577896138482,0.03914780292942743,0.08948069241011984
627.5510204081633,0.08095872170439414,0.03568575233022637,0.07802929427430093
630.1020408163265,0.08229027962716379,0.0237017310252996,0.07509986684420772
632.6530612244898,0.06045272969374168,0.020239680426098534,0.07030625832223701
635.204081632653,0.0426098535286285,0.007723035952063915,0.07243675099866845
637.7551020408163,0.019174434087882823,0.010918774966711052,0.07403462050599201
640.3061224489795,0.01411451398135819,0.006391478029294274,0.0748335552596538
642.8571428571429,0.0005326231691078562,0.003195739014647137,0.07643142476697737
645.4081632653061,-0.0010652463382157123,-0.013315579227696404,0.08282290279627164
647.9591836734694,0.006125166444740347,-0.01118508655126498,0.07882822902796272
650.5102040816327,0.009587217043941412,-0.028761651131824235,0.07217043941411451
653.0612244897959,0.011717709720372836,-0.015712383488681758,0.07083888149134487
655.6122448979592,0.03302263648468708,-0.025033288948069242,0.06604527296937417
658.1632653061224,0.03754993342210386,-0.034354194407456726,0.07003994673768309
660.7142857142857,0.05645805592543276,-0.04181091877496671,0.06471371504660453
663.2653061224489,0.06817576564580559,-0.05139813581890812,0.05272969374167776
665.8163265306123,0.08548601864181092,-0.05885486018641811,0.054061251664447404
668.3673469387755,0.08229027962716379,-0.05938748335552597,0.050066577896138484
670.9183673469388,0.09214380825565913,-0.06151797603195739,0.04287616511318242
673.469387755102,0.09986684420772303,-0.07163781624500666,0.040745672436751
676.0204081632653,0.09640479360852197,-0.0673768308921438,0.03195739014647137
678.5714285714286,0.11105193075898802,-0.07403462050599201,0.030093209054593874
681.1224489795918,0.1051930758988016,-0.07669773635153129,0.02636484687083888
683.6734693877551,0.10173102529960053,-0.07829560585885487,0.01411451398135819
686.2244897959183,0.1137150466045273,-0.08095872170439414,0.011984021304926764
688.7755102040816,0.09187749667110519,-0.08282290279627164,0.006657789613848202
691.3265306122449,0.08655126498002663,-0.081491344873502,0.0015978695073235686
693.8775510204082,0.07190412782956059,-0.09001331557922769,0.002396804260985353
696.4285714285714,0.07509986684420772,-0.08948069241011984,-0.0010652463382157123
698.9795918367347,0.06977363515312916,-0.09747003994673768,-0.007190412782956059
701.530612244898,0.06870838881491345,-0.1089214380825566,0.0015978695073235686
704.0816326530612,0.07376830892143808,-0.11398135818908123,-0.017576564580559253
706.6326530612245,0.07936085219707058,-0.12303595206391478,-0.014913448735019973
709.1836734693877,0.07509986684420772,-0.11025299600532623,-0.013581890812250332
711.734693877551,0.08628495339547271,-0.12942743009320906,-0.015978695073235686
714.2857142857142,0.09454061251664447,-0.13715046604527298,-0.013049267643142477
716.8367346938776,0.10732356857523302,-0.13235685752330226,-0.003195739014647137
719.3877551020408,0.10679094540612516,-0.14620505992010652,-0.004793608521970706
721.9387755102041,0.12356857523302264,-0.15659121171770973,-0.011451398135818908
724.4897959183673,0.12063914780292943,-0.1499334221038615,-0.018109187749667112
727.0408163265306,0.13209054593874833,-0.15525965379494008,-0.027163781624500664
729.5918367346939,0.1384820239680426,-0.15872170439414116,-0.017576564580559253
732.1428571428571,0.13715046604527298,-0.16724367509986685,-0.03462050599201065
734.6938775510204,0.12756324900133156,-0.1762982689747004,-0.03781624500665779
737.2448979591836,0.12410119840213049,-0.18828229027962717,-0.032223701731025296
739.7959183673469,0.12303595206391478,-0.19653794940079894,-0.031424766977363516
742.3469387755102,0.11318242343541944,-0.18615179760319575,-0.029826897470039946
744.8979591836735,0.12170439414114514,-0.17869507323568576,-0.035153129161118506
747.4489795918367,0.11877496671105194,-0.17949400798934753,-0.04047936085219707
750,0.12356857523302264,-0.17896138482023968,-0.04287616511318242
752.5510204081633,0.13288948069241013,-0.19360852197070572,-0.05379494007989347
755.1020408163265,0.1366178428761651,-0.2085219707057257,-0.055126498002663116
757.6530612244898,0.15126498002663116,-0.20719041278295605,-0.047936085219707054
760.204081632653,0.16724367509986685,-0.20932090545938747,-0.04660452729693742
762.7551020408163,0.18055925432756326,-0.2,-0.05672436750998668
765.3061224489795,0.1866844207723036,-0.20585885486018643,-0.05166444740346205
767.8571428571429,0.19760319573901464,-0.19627163781624501,-0.05139813581890812
770.4081632653061,0.22023968042609854,-0.19014647137150467,-0.04474034620505992
772.9591836734694,0.22210386151797604,-0.1848202396804261,-0.0492676431424767
775.5102040816327,0.22822902796271638,-0.19840213049267644,-0.05272969374167776
778.0612244897959,0.23169107856191745,-0.18268974700399468,-0.05166444740346205
780.6122448979592,0.23621837549933422,-0.1866844207723036,-0.051131824234354195
783.1632653061224,0.23142476697736353,-0.18508655126498003,-0.052197070572569906
785.7142857142857,0.2210386151797603,-0.17976031957390146,-0.04900133155792277
788.2653061224489,0.21544607190412782,-0.16245006657789615,-0.048202396804260986
790.8163265306122,0.22050599201065246,-0.15525965379494008,-0.06577896138482024
793.3673469387755,0.2229027962716378,-0.1467376830892144,-0.06657789613848203
795.9183673469388,0.2266311584553928,-0.1459387483355526,-0.07669773635153129
798.469387755102,0.2359520639147803,-0.12916111850865514,-0.07509986684420772
801.0204081632653,0.2466045272969374,-0.12703062583222371,-0.07509986684420772
803.5714285714286,0.27776298268974703,-0.11824234354194407,-0.08202396804260985
806.1224489795918,0.3174434087882823,-0.11025299600532623,-0.08575233022636485
808.6734693877551,0.3699067909454061,-0.11318242343541944,-0.0833555259653795
811.2244897959183,0.43541944074567246,-0.09374167776298269,-0.08442077230359521
813.7755102040816,0.5123834886817576,-0.09533954727030626,-0.08735019973368842
816.3265306122448,0.6,-0.09507323568575234,-0.09161118508655126
818.8775510204082,0.7054593874833556,-0.09507323568575234,-0.0948069241011984
821.4285714285714,0.8330226364846871,-0.0929427430093209,-0.10412782956058589
823.9795918367347,0.9813581890812251,-0.09613848202396805,-0.0996005326231691
826.530612244898,1.1491344873501996,-0.0948069241011984,-0.12623169107856191
829.0816326530612,1.3320905459387484,-0.1051930758988016,-0.12543275632490014
831.6326530612245,1.5533954727030626,-0.09267643142476698,-0.1336884154460719
834.1836734693877,1.7794940079893475,-0.09560585885486018,-0.14007989347536617
836.734693877551,2.0210386151797604,-0.10173102529960053,-0.15312916111850866
839.2857142857142,2.307323568575233,-0.09001331557922769,-0.15099866844207724
841.8367346938776,2.6127829560585885,-0.09693741677762982,-0.17603195739014646
844.3877551020408,2.952862849533955,-0.10226364846870839,-0.18801597869507325
846.9387755102041,3.3089214380825567,-0.10945406125166444,-0.2114513981358189
849.4897959183673,3.7019973368841543,-0.10758988015978695,-0.23195739014647138
852.0408163265306,4.116111850865512,-0.10252996005326231,-0.2466045272969374
854.5918367346939,4.554460719041279,-0.10359520639147803,-0.2809587217043941
857.1428571428571,5.027696404793608,-0.11717709720372836,-0.31051930758988017
859.6938775510204,5.51051930758988,-0.10918774966711052,-0.33981358189081223
862.2448979591836,6.045539280958722,-0.11398135818908123,-0.3563249001331558
864.7959183673469,6.598135818908123,-0.11797603195739015,-0.3936085219707057
867.3469387755102,7.172037283621838,-0.11478029294274301,-0.44607190412782954
869.8979591836735,7.774434087882823,-0.13768308921438083,-0.4884154460719041
872.4489795918367,8.409320905459387,-0.1411451398135819,-0.5419440745672437
875,8.726231691078562,-0.155525965379494,-0.599733688415446
877.5510204081633,8.726231691078562,-0.1736351531291611,-0.6463382157123835
880.1020408163265,8.726231691078562,-0.18801597869507325,-0.700133155792277
882.6530612244898,8.726231691078562,-0.20159786950732356,-0.7677762982689748
885.204081632653,8.726231691078562,-0.23728362183754995,-0.8106524633821571
887.7551020408163,8.726231691078562,-0.2559254327563249,-0.8569906790945406
890.3061224489795,8.726231691078562,-0.28788282290279626,-0.9153129161118508
892.8571428571429,8.726231691078562,-0.3272969374167776,-0.9680426098535286
895.4081632653061,8.726231691078562,-0.36378162450066576,-0.9973368841544608
897.9591836734694,8.726231691078562,-0.39014647137150466,-1.041011984021305
900.5102040816327,8.726231691078562,-0.4343541944074567,-1.0881491344873502
903.0612244897959,8.726231691078562,-0.4607190412782956,-1.1203728362183756
905.6122448979592,8.726231691078562,-0.4708388814913449,-1.1272969374167776
908.1632653061224,8.726231691078562,-0.4018641810918775,-1.1166444740346204
910.7142857142857,8.726231691078562,-0.4830892143808256,-1.1454061251664447
913.2653061224489,8.726231691078562,-0.7773635153129161,-1.2913448735019974
915.8163265306122,8.726231691078562,-0.8255659121171771,-1.2932090545938748
918.3673469387755,8.726231691078562,-0.6513981358189082,-1.1992010652463383
920.9183673469388,8.726231691078562,-0.6245006657789614,-1.200266311584554
923.469387755102,8.726231691078562,-0.6242343541944074,-1.2495339547270305
926.0204081632653,8.726231691078562,-0.6468708388814913,-1.2093209054593874
928.5714285714286,8.726231691078562,-0.7230359520639148,-1.1840213049267643
931.1224489795918,8.726231691078562,-0.7099866844207723,-1.182157123834887
933.6734693877551,8.726231691078562,-0.5837549933422104,-1.1717709720372835
936.2244897959183,8.726231691078562,-0.5912117177097204,-1.1414114513981357
938.7755102040816,8.726231691078562,-0.6348868175765646,-1.1203728362183756
941.3265306122448,8.726231691078562,-0.5784287616511318,-1.1342210386151799
943.8775510204082,8.726231691078562,-0.5299600532623169,-1.1307589880159787
946.4285714285714,8.726231691078562,-0.5320905459387484,-1.0942743009320905
948.9795918367347,8.726231691078562,-0.481491344873502,-1.1086551264980027
951.530612244898,8.726231691078562,-0.40133155792276964,-1.1030625832223702
954.0816326530612,8.726231691078562,-0.3970705725699068,-1.081491344873502
956.6326530612245,8.726231691078562,-0.39121171770972035,-1.085219707057257
959.1836734693877,8.726231691078562,-0.37283621837549935,-1.110785619174434
961.734693877551,8.726231691078562,-0.3392809587217044,-1.1171770972037283
964.2857142857142,8.726231691078562,-0.30679094540612517,-1.1358189081225034
966.8367346938775,8.726231691078562,-0.3347536617842876,-1.1762982689747004
969.3877551020408,8.726231691078562,-0.33315579227696407,-1.16271637816245
971.9387755102041,8.726231691078562,-0.28788282290279626,-1.1757656458055925
974.4897959183673,8.726231691078562,-0.2434087882822903,-1.1914780292942744
977.0408163265306,8.726231691078562,-0.25432756324900135,-1.1898801597869508
979.5918367346939,8.726231691078562,-0.2804260985352863,-1.1462050599201066
982.1428571428571,8.726231691078562,-0.3099866844207723,-1.121704394141145
984.6938775510204,8.726231691078562,-0.2796271637816245,-1.114513981358189
987.2448979591836,8.726231691078562,-0.2695073235685752,-1.1251664447403462
989.7959183673469,8.726231691078562,-0.2806924101198402,-1.085219707057257
992.3469387755102,8.726231691078562,-0.3003994673768309,-1.0391478029294274
994.8979591836735,8.726231691078562,-0.29880159786950733,-1.0183754993342211
997.4489795918367,8.726231691078562,-0.32143808255659123,-0.9715046604527297
1000,8.726231691078562,-0.3206391478029294,-0.9275632490013316
1002.5062656641604,8.726231691078562,-0.3235685752330226,-0.8577896138482024
1005.0125313283208,8.726231691078562,-0.3520639147802929,-0.7834886817576565
1007.5187969924812,8.726231691078562,-0.36165113182423436,-0.7153129161118509
1010.0250626566416,8.726231691078562,-0.3472703062583222,-0.62237017310253
1012.531328320802,8.726231691078562,-0.3680426098535286,-0.5288948069241012
1015.0375939849624,8.726231691078562,-0.3533954727030626,-0.45272969374167776
1017.5438596491229,8.726231691078562,-0.33262316910785616,-0.36431424766977366
1020.0501253132832,8.726231691078562,-0.31025299600532624,-0.2607190412782956
1022.5563909774436,8.726231691078562,-0.3009320905459387,-0.1659121171770972
1025.062656641604,7.737416777629827,-0.29161118508655126,-0.07350199733688416
1027.5689223057643,6.361384820239681,-0.2588548601864181,0.04340878828229028
1030.0751879699249,4.944873501997336,-0.23169107856191745,0.1384820239680426
1032.5814536340852,3.530758988015979,-0.21944074567243674,0.2388814913448735
1035.0877192982457,2.1515312916111853,-0.19387483355525964,0.3243675099866844
1037.593984962406,0.8498002663115846,-0.16724367509986685,0.4167776298268975
1040.1002506265663,-0.3573901464713715,-0.16138482023968043,0.5030625832223702
1042.6065162907269,-1.425565912117177,-0.1233022636484687,0.574167776298269
1045.1127819548872,-2.345139813581891,-0.1051930758988016,0.6300932090545939
1047.6190476190477,-3.0798934753661786,-0.09693741677762982,0.6735019973368842
1050.125313283208,-3.678561917443409,-0.09347536617842876,0.7057256990679095
1052.6315789473683,-4.116378162450067,-0.09507323568575234,0.7251664447403462
1055.1378446115289,-4.448735019973369,-0.09347536617842876,0.7251664447403462
1057.6441102756892,-4.653262316910785,-0.09214380825565913,0.7294274300932091
1060.1503759398497,-4.781091877496671,-0.0796271637816245,0.715046604527297
1062.65664160401,-4.827696404793609,-0.06151797603195739,0.7067909454061252
1065.1629072681703,-4.8095872170439415,-0.043142476697736354,0.6854860186418109
1067.6691729323309,-4.731291611185086,-0.02636484687083888,0.6583222370173103
1070.1754385964912,-4.617310252996005,-0.04660452729693742,0.6300932090545939
1072.6817042606517,-4.454860186418109,-0.013049267643142477,0.6034620505992011
1075.187969924812,-4.269773635153129,0.029560585885486018,0.5595206391478029
1077.6942355889723,-4.078029294274301,0.034087882822902794,0.5233022636484687
1080.2005012531329,-3.870306258322237,0.03754993342210386,0.49347536617842874
1082.7067669172932,-3.6537949400798935,0.04367509986684421,0.45512649800266314
1085.2130325814537,-3.447669773635153,0.08362183754993342,0.46098535286284953
1087.719298245614,-3.270572569906791,0.08681757656458056,0.396271637816245
1090.2255639097743,-3.106790945406125,0.08948069241011984,0.35233022636484684
1092.7318295739349,-2.974167776298269,0.1107856191744341,0.33794940079893476
1095.2380952380952,-2.8655126498002663,0.13821571238348868,0.31877496671105193
1097.7443609022557,-2.774167776298269,0.17203728362183754,0.28575233022636487
1100.250626566416,-2.722237017310253,0.18988015978695072,0.26151797603195737
1102.7568922305763,-2.714247669773635,0.21065246338215712,0.24394141145139814
1105.2631578947369,-2.6990679094540613,0.2234354194407457,0.2274300932090546
1107.7694235588972,-2.718774966711052,0.23382157123834887,0.21544607190412782
1110.2756892230577,-2.7712383488681755,0.2508655126498003,0.1858854860186418
1112.781954887218,-2.866311584553928,0.27403462050599203,0.17177097203728361
1115.2882205513783,-2.9912117177097204,0.303595206391478,0.16564580559254327
1117.7944862155389,-3.188282290279627,0.3299600532623169,0.15765645805592543
1120.3007518796992,-3.456990679094541,0.3525965379494008,0.16271637816245008
1122.8070175438597,-3.7944074567243673,0.3723035952063915,0.1773635153129161
1125.31328320802,-4.1802929427430096,0.40878828229027964,0.18721704394141145
1127.8195488721803,-4.620239680426098,0.44021304926764315,0.21171770972037285
1130.3258145363409,-5.162450066577896,0.4719041278295606,0.24713715046604529
1132.8320802005012,-5.740079893475366,0.5027962716378163,0.2937416777629827
1135.3383458646617,-6.430359520639148,0.5470039946737683,0.35525965379494007
1137.844611528822,-7.198934753661784,0.5869507323568576,0.41384820239680425
1140.3508771929824,-8.048468708388816,0.6351531291611185,0.4785619174434088
1142.857142857143,-8.724633821571238,0.6782956058588548,0.5584553928095872
1145.3634085213032,-8.726231691078562,0.7238348868175766,0.6535286284953395
1147.8696741854637,-8.726231691078562,0.7549933422103862,0.7387483355525966
1150.375939849624,-8.726231691078562,0.7965379494007989,0.8521970705725699
1152.8822055137844,-8.726231691078562,0.8316910785619175,0.9688415446071904
1155.388471177945,-8.726231691078562,0.8450066577896138,1.0673768308921439
1157.8947368421052,-8.726231691078562,0.8474034620505992,1.1725699067909454
1160.4010025062657,-8.726231691078562,0.8644474034620506,1.277762982689747
1162.907268170426,-8.726231691078562,0.8604527296937416,1.4135818908122504
1165.4135338345864,-8.726231691078562,0.8508655126498003,1.5267643142476697
1167.919799498747,-8.726231691078562,0.8492676431424767,1.6300932090545939
1170.4260651629072,-8.726231691078562,0.833288948069241,1.7363515312916111
1172.9323308270677,-8.726231691078562,0.8061251664447403,1.833022636484687
1175.438596491228,-8.726231691078562,0.7840213049267644,1.9011984021304926
1177.9448621553884,-8.726231691078562,0.7802929427430093,1.948335552596538
1180.451127819549,-8.726231691078562,0.8095872170439414,2.000266311584554
1182.9573934837092,-8.726231691078562,0.8466045272969375,2.08948069241012
1185.4636591478697,-8.726231691078562,0.8476697736351532,2.130492676431425
1187.96992481203,-8.726231691078562,0.8093209054593875,2.1648468708388813
1190.4761904761904,-8.726231691078562,0.7323568575233023,2.1826897470039945
1192.982456140351,-8.726231691078562,0.6434087882822903,2.2162450066577897
1195.4887218045112,-8.726231691078562,0.5920106524633821,2.2175765645805594
1197.9949874686718,-8.726231691078562,0.5384820239680426,2.2055925432756327
1200.501253132832,-8.726231691078562,0.4780292942743009,2.1834886817576566
1203.0075187969924,-8.726231691078562,0.3794940079893475,2.155792276964048
1205.513784461153,-8.726231691078562,0.2809587217043941,2.1017310252996007
1208.0200501253132,-8.726231691078562,0.17869507323568576,2.025299600532623
1210.5263157894738,-8.726231691078562,0.10066577896138482,1.951264980026631
1213.032581453634,-8.726231691078562,0.05033288948069241,1.8471371504660452
1215.5388471177944,-8.726231691078562,-0.004527296937416778,1.7302263648468708
1218.045112781955,-8.726231691078562,-0.04953395472703063,1.6045272969374167
1220.5513784461152,-8.726231691078562,-0.08974700399467377,1.4681757656458057
1223.0576441102758,-8.726231691078562,-0.10785619174434088,1.3470039946737684
1225.563909774436,-8.726231691078562,-0.12569906790945407,1.2239680426098536
1228.0701754385964,-8.726231691078562,-0.155525965379494,1.070039946737683
1230.576441102757,-8.726231691078562,-0.1715046604527297,0.9504660452729694
1233.0827067669172,-8.726231691078562,-0.19840213049267644,0.8252996005326232
1235.5889724310778,-8.726231691078562,-0.21997336884154461,0.7102529960053262
1238.095238095238,-8.726231691078562,-0.2218375499334221,0.5344873501997337
1240.6015037593984,-8.726231691078562,-0.24687083888149133,0.414647137150466
1243.107769423559,-8.726231691078562,-0.2599201065246338,0.34007989347536616
1245.6140350877192,-8.726231691078562,-0.2521970705725699,0.2545938748335553
1248.1203007518798,-8.726231691078562,-0.2434087882822903,0.1659121171770972
1250.62656641604,-8.726231691078562,-0.21438082556591212,0.1118508655126498
1253.1328320802004,-8.726231691078562,-0.18135818908122503,0.06178428761651132
1255.639097744361,-8.726231691078562,-0.14434087882822902,0.007723035952063915
1258.1453634085212,-7.818641810918775,-0.12436750998668442,-0.03062583222370173
1260.6516290726818,-6.728628495339548,-0.10252996005326231,-0.08122503328894808
1263.157894736842,-5.6838881491344875,-0.07563249001331558,-0.13688415446071905
1265.6641604010024,-4.704660452729693,-0.06551264980026632,-0.18268974700399468
1268.170426065163,-3.7653794940079894,-0.06231691078561918,-0.22023968042609854
1270.6766917293232,-2.9320905459387485,-0.02663115845539281,-0.32916111850865515
1273.1829573934838,-2.1733688415446073,-0.022103861517976033,-0.2796271637816245
1275.689223057644,-1.5059920106524634,-0.017043941411451397,-0.2900133155792277
1278.1954887218044,-0.9438082556591212,-0.013049267643142477,-0.2974700399467377
1280.701754385965,-0.46284953395472705,0.0018641810918774966,-0.2982689747003995
1283.2080200501252,-0.08948069241011984,0.012516644474034621,-0.29640479360852195
1285.7142857142858,0.19094540612516644,0.020505992010652462,-0.2745672436750999
1288.220551378446,0.3760319573901465,0.034087882822902794,-0.2572569906790945
1290.7268170426064,0.48282290279627166,0.02636484687083888,-0.23142476697736353
1293.233082706767,0.5171770972037284,0.025832223701731025,-0.20798934753661785
1295.7393483709272,0.4956058588548602,0.030093209054593874,-0.1723035952063915
1298.2456140350878,0.41118508655126496,0.028761651131824235,-0.13794940079893475
1300.751879699248,0.30679094540612517,0.013848202396804262,-0.09613848202396805
1303.2581453634084,0.18215712383488683,0.024500665778961386,-0.0673768308921438
1305.764411027569,0.029560585885486018,0.024234354194407455,-0.02237017310252996
1308.2706766917292,-0.11664447403462051,0.030093209054593874,0.0151797603195739
1310.7769423558898,-0.24713715046604529,0.01651131824234354,0.05619174434087883
1313.28320802005,-0.37789613848202397,0.00985352862849534,0.09507323568575234
1315.7894736842104,-0.4719041278295606,0.009054593874833556,0.13155792276964048
1318.295739348371,-0.5358189081225033,0.005326231691078562,0.16830892143808257
1320.8020050125313,-0.5645805592543276,-0.016245006657789614,0.1970705725699068
1323.3082706766918,-0.5451398135818908,0.01544607190412783,0.2255659121171771
1325.814536340852,-0.5107856191744341,0.018641810918774968,0.25033288948069243
1328.3208020050124,-0.43275632490013316,0.03089214380825566,0.25645805592543275
1330.827067669173,-0.32543275632490015,0.047936085219707054,0.28655126498002664
1333.3333333333333,-0.20559254327563248,0.04340878828229028,0.3062583222370173
1335.8395989974938,-0.0692410119840213,0.04607190412782956,0.3166444740346205
1338.345864661654,0.06711051930758988,0.05858854860186418,0.3243675099866844
1340.8521303258144,0.2215712383488682,0.08415446071904129,0.3249001331557923
1343.358395989975,0.3411451398135819,0.09640479360852197,0.3267643142476698
1345.8646616541353,0.46364846870838883,0.11637816245006657,0.33422103861517977
1348.3709273182958,0.5520639147802929,0.13422103861517976,0.3249001331557923
1350.877192982456,0.6308921438082556,0.14194407456724367,0.33155792276964047
1353.3834586466164,0.670306258322237,0.1525965379494008,0.3121171770972037
1355.889724310777,0.6785619174434088,0.16937416777629827,0.30918774966711055
1358.3959899749373,0.6705725699067909,0.17310252996005326,0.29640479360852195
1360.9022556390978,0.6322237017310253,0.17709720372836218,0.2937416777629827
1363.408521303258,0.581624500665779,0.18082556591211718,0.28015978695073235
1365.9147869674184,0.49880159786950734,0.18242343541944075,0.2798934753661784
1368.421052631579,0.3968042609853529,0.18908122503328895,0.28575233022636487
1370.9273182957393,0.2996005326231691,0.1829560585885486,0.2892143808255659
1373.4335839598998,0.1885486018641811,0.17762982689747003,0.2846870838881491
1375.9398496240601,0.08308921438082556,0.1885486018641811,0.29880159786950733
1378.4461152882204,-0.025832223701731025,0.17709720372836218,0.31264980026631156
1380.952380952381,-0.13129161118508656,0.16085219707057258,0.3209054593874834
1383.4586466165413,-0.22237017310252996,0.14460719041278294,0.3320905459387483
1385.9649122807018,-0.3155792276964048,0.12756324900133156,0.3478029294274301
1388.4711779448621,-0.3832223701731025,0.10838881491344873,0.36378162450066576
1390.9774436090224,-0.45832223701731023,0.08974700399467377,0.3640479360852197
1393.483709273183,-0.511318242343542,0.07323568575233022,0.3757656458055925
1395.9899749373433,-0.5616511318242343,0.040745672436751,0.38055925432756327
1398.4962406015038,-0.596271637816245,0.02636484687083888,0.3944074567243675
1401.0025062656641,-0.6364846870838882,-0.008521970705725699,0.4194407456724368
1403.5087719298244,-0.6607190412782956,-0.025033288948069242,0.4141145139813582
1406.015037593985,-0.677762982689747,-0.040745672436751,0.41145139813581894
1408.5213032581453,-0.6972037283621838,-0.06045272969374168,0.4055925432756325
1411.0275689223058,-0.7230359520639148,-0.0758988015978695,0.4130492676431425
1413.5338345864661,-0.7323568575233023,-0.08761651131824234,0.3997336884154461
1416.0401002506264,-0.7573901464713715,-0.0966711051930759,0.3941411451398136
1418.546365914787,-0.7512649800266311,-0.10972037283621837,0.3914780292942743
1421.0526315789473,-0.751797603195739,-0.12170439414114514,0.3770972037283622
1423.5588972431078,-0.7491344873501997,-0.1107856191744341,0.3707057256990679
1426.0651629072681,-0.733155792276964,-0.09800266311584555,0.3608521970705726
1428.5714285714284,-0.7091877496671105,-0.09533954727030626,0.3563249001331558
1431.077694235589,-0.700133155792277,-0.09826897470039947,0.3507323568575233
1433.5839598997493,-0.6644474034620506,-0.09400798934753662,0.33528628495339546
1436.0902255639098,-0.6242343541944074,-0.09054593874833555,0.3083888149134487
1438.5964912280701,-0.5992010652463382,-0.08015978695073235,0.3006657789613848
1441.1027568922304,-0.5419440745672437,-0.08548601864181092,0.2806924101198402
1443.609022556391,-0.48362183754993343,-0.06125166444740346,0.2572569906790945
1446.1152882205513,-0.4229027962716378,-0.062050599201065246,0.23621837549933422
1448.6215538847118,-0.3536617842876165,-0.04580559254327563,0.22210386151797604
1451.1278195488721,-0.27430093209054596,-0.041011984021304924,0.21491344873501997
1453.6340852130324,-0.2018641810918775,-0.06231691078561918,0.18428761651131825
1456.140350877193,-0.12543275632490014,-0.0474034620505992,0.16245006657789615
1458.6466165413533,-0.05938748335552597,-0.043941411451398134,0.1744340878828229
1461.1528822055138,0.0074567243675099865,-0.03568575233022637,0.16165113182423435
1463.6591478696741,0.08708388814913448,-0.025565912117177098,0.13901464713715048
1466.1654135338345,0.13422103861517976,-0.022103861517976033,0.14354194407456725
1468.671679197995,0.18748335552596537,-0.02237017310252996,0.14141145139813582
1471.1779448621553,0.2237017310252996,-0.01651131824234354,0.13715046604527298
1473.6842105263158,0.24181091877496672,-0.013315579227696404,0.12942743009320906
1476.1904761904761,0.2647137150466045,-0.007723035952063915,0.13821571238348868
1478.6967418546365,0.25805592543275635,-0.0037283621837549932,0.13022636484687083
1481.203007518797,0.25272969374167775,0.0037283621837549932,0.13501997336884156
1483.7092731829573,0.2426098535286285,0.007989347536617843,0.13715046604527298
1486.2155388471178,0.22529960053262316,0.013315579227696404,0.1366178428761651
1488.7218045112782,0.21011984021304927,0.03169107856191744,0.1422103861517976
1491.2280701754385,0.1970705725699068,0.02822902796271638,0.1403462050599201
1493.734335839599,0.17470039946737684,0.03914780292942743,0.14513981358189082
1496.2406015037593,0.15605858854860186,0.05326231691078562,0.155525965379494
1498.7468671679198,0.13768308921438083,0.060985352862849534,0.15392809587217043
1501.2531328320802,0.11344873501997337,0.06577896138482024,0.15712383488681758
1503.7593984962405,0.07536617842876166,0.06551264980026632,0.16245006657789615
1506.265664160401,0.02130492676431425,0.06844207723035953,0.16324900133155792
1508.7719298245613,-0.031424766977363516,0.077762982689747,0.16750998668442077
1511.2781954887218,-0.10173102529960053,0.07030625832223701,0.17390146471371504
1513.7844611528822,-0.1515312916111851,0.0729693741677763,0.18002663115845538
1516.2907268170425,-0.2085219707057257,0.08921438082556592,0.18988015978695072
1518.796992481203,-0.2561917443408788,0.08948069241011984,0.18002663115845538
1521.3032581453635,-0.29027962716378164,0.0966711051930759,0.19067909454061252
1523.8095238095239,-0.3107856191744341,0.09267643142476698,0.18615179760319575
1526.3157894736842,-0.31797603195739016,0.07243675099866845,0.18322237017310253
1528.8220551378445,-0.3118508655126498,0.07057256990679095,0.18615179760319575
1531.328320802005,-0.29720372836218373,0.05326231691078562,0.1773635153129161
1533.8345864661655,-0.25778961384820237,0.04900133155792277,0.1677762982689747
1536.3408521303259,-0.21624500665778962,0.05033288948069241,0.16058588548601865
1538.8471177944862,-0.162982689747004,0.035153129161118506,0.14327563249001332
1541.3533834586465,-0.10865512649800266,0.022103861517976033,0.1299600532623169
1543.859649122807,-0.06258322237017311,0.020239680426098534,0.13288948069241013
1546.3659147869676,-0.016245006657789614,0.018641810918774968,0.118508655126498
1548.8721804511279,0.022103861517976033,0.002396804260985353,0.1137150466045273
1551.3784461152882,0.04447403462050599,0.004260985352862849,0.09826897470039947
1553.8847117794485,0.05965379494007989,-0.010652463382157125,0.0929427430093209
1556.390977443609,0.06311584553928096,-0.01118508655126498,0.08921438082556592
1558.8972431077696,0.06444740346205059,-0.011451398135818908,0.08974700399467377
1561.4035087719299,0.058055925432756325,-0.00559254327563249,0.08388814913448735
1563.9097744360902,0.05166444740346205,-0.017842876165113184,0.081491344873502
1566.4160401002505,0.03994673768308921,-0.004260985352862849,0.08601864181091877
1568.922305764411,0.031424766977363516,-0.00559254327563249,0.0748335552596538
1571.4285714285716,0.02929427430093209,0.005059920106524634,0.07749667110519308
1573.9348370927319,0.040745672436751,0.006391478029294274,0.07509986684420772
1576.4411027568922,0.04154460719041278,0.002396804260985353,0.07190412782956059
1578.9473684210525,0.05299600532623169,-0.004793608521970706,0.06125166444740346
1581.453634085213,0.07643142476697737,0.0005326231691078562,0.058055925432756325
1583.9598997493736,0.10439414114513981,0.009054593874833556,0.05272969374167776
1586.4661654135339,0.12756324900133156,0.00825565912117177,0.04846870838881491
1588.9724310776942,0.1611185086551265,0.00825565912117177,0.03488681757656458
1591.4786967418545,0.18268974700399468,0.014913448735019973,0.03062583222370173
1593.984962406015,0.2085219707057257,0.010119840213049267,0.0303595206391478
1596.4912280701756,0.22529960053262316,0.022636484687083888,0.015712383488681758
1598.9974937343359,0.25139813581890813,0.02529960053262317,0.0151797603195739
1601.5037593984962,0.25246338215712383,0.031424766977363516,-0.003195739014647137
1604.0100250626565,0.2428761651131824,0.03275632490013316,-0.022103861517976033
1606.516290726817,0.2436750998668442,0.03541944074567244,-0.024234354194407455
1609.0225563909776,0.2234354194407457,0.03302263648468708,-0.02796271637816245
1611.5288220551379,0.20639147802929428,0.05379494007989347,-0.03062583222370173
1614.0350877192982,0.1762982689747004,0.05938748335552597,-0.04474034620505992
1616.5413533834585,0.159254327563249,0.07643142476697737,-0.04980026631158455
1619.047619047619,0.1430093209054594,0.07083888149134487,-0.05379494007989347
1621.5538847117796,0.1278295605858855,0.07323568575233022,-0.059121171770972036
1624.0601503759399,0.1107856191744341,0.08601864181091877,-0.05965379494007989
1626.5664160401002,0.10972037283621837,0.08415446071904129,-0.07696404793608522
1629.0726817042605,0.10173102529960053,0.09320905459387484,-0.07243675099866845
1631.578947368421,0.0948069241011984,0.09773635153129161,-0.08761651131824234
1634.0852130325816,0.09986684420772303,0.08282290279627164,-0.08548601864181092
1636.591478696742,0.10093209054593875,0.08442077230359521,-0.08175765645805592
1639.0977443609022,0.10785619174434088,0.0729693741677763,-0.08042609853528629
1641.6040100250625,0.1392809587217044,0.07749667110519308,-0.09054593874833555
1644.110275689223,0.16085219707057258,0.08495339547270306,-0.09187749667110519
1646.6165413533836,0.1877496671105193,0.07323568575233022,-0.09107856191744342
1649.122807017544,0.21278295605858855,0.08042609853528629,-0.08575233022636485
1651.6290726817042,0.24234354194407456,0.07936085219707058,-0.08175765645805592
1654.1353383458645,0.2737683089214381,0.08175765645805592,-0.07563249001331558
1656.641604010025,0.2804260985352863,0.08255659121171771,-0.07669773635153129
1659.1478696741856,0.2932090545938748,0.08708388814913448,-0.07217043941411451
1661.654135338346,0.3009320905459387,0.09906790945406126,-0.07616511318242343
1664.1604010025062,0.31531291611185086,0.09880159786950732,-0.06817576564580559
1666.6666666666665,0.329693741677763,0.09347536617842876,-0.081491344873502
1669.172932330827,0.3219707057256991,0.11105193075898802,-0.07669773635153129
1671.6791979949876,0.33608521970705724,0.12543275632490014,-0.07936085219707058
1674.185463659148,0.3355525965379494,0.12063914780292943,-0.07376830892143808
1676.6917293233082,0.3235685752330226,0.14567243675099867,-0.06577896138482024
1679.1979949874685,0.3193075898801598,0.15818908122503328,-0.06764314247669774
1681.704260651629,0.30492676431424764,0.1858854860186418,-0.0796271637816245
1684.2105263157896,0.2897470039946738,0.1952063914780293,-0.07563249001331558
1686.71679197995,0.28681757656458057,0.18135818908122503,-0.05193075898801598
1689.2230576441102,0.28681757656458057,0.16937416777629827,-0.048202396804260986
1691.7293233082705,0.2806924101198402,0.15898801597869508,-0.04447403462050599
1694.235588972431,0.2700399467376831,0.16138482023968043,-0.03541944074567244
1696.7418546365916,0.2569906790945406,0.14753661784287617,-0.015712383488681758
1699.248120300752,0.2255659121171771,0.12836218375499334,0.0015978695073235686
1701.7543859649122,0.19094540612516644,0.125965379494008,0.03302263648468708
1704.2606516290725,0.16351531291611185,0.12170439414114514,0.03488681757656458
1706.766917293233,0.10998668442077231,0.10625832223701731,0.04766977363515313
1709.2731829573936,0.06977363515312916,0.09693741677762982,0.058055925432756325
1711.779448621554,0.029826897470039946,0.08948069241011984,0.07030625832223701
1714.2857142857142,0.00559254327563249,0.07643142476697737,0.07696404793608522
1716.7919799498745,-0.03275632490013316,0.06897470039946738,0.08095872170439414
1719.298245614035,-0.047936085219707054,0.07217043941411451,0.08974700399467377
1721.8045112781956,-0.056990679094540614,0.08761651131824234,0.0881491344873502
1724.310776942356,-0.06045272969374168,0.08415446071904129,0.08921438082556592
1726.8170426065162,-0.03914780292942743,0.09161118508655126,0.08868175765645805
1729.3233082706765,-0.024234354194407455,0.08708388814913448,0.10093209054593875
1731.829573934837,0.010918774966711052,0.09400798934753662,0.09640479360852197
1734.3358395989976,0.04687083888149134,0.08601864181091877,0.09454061251664447
1736.842105263158,0.07163781624500666,0.10093209054593875,0.09747003994673768
1739.3483709273182,0.09720372836218376,0.10199733688415447,0.08735019973368842
1741.8546365914785,0.10545938748335552,0.10252996005326231,0.08415446071904129
1744.360902255639,0.11238348868175765,0.0966711051930759,0.09001331557922769
1746.8671679197996,0.10865512649800266,0.11531291611185086,0.08495339547270306
1749.37343358396,0.09347536617842876,0.12410119840213049,0.09001331557922769
1751.8796992481202,0.07456724367509987,0.13768308921438083,0.08468708388814913
1754.3859649122805,0.05326231691078562,0.1440745672436751,0.09054593874833555
1756.892230576441,0.030093209054593874,0.15712383488681758,0.09560585885486018
1759.3984962406016,0.012516644474034621,0.15898801597869508,0.09001331557922769
1761.904761904762,0.0015978695073235686,0.15312916111850866,0.10199733688415447
1764.4110275689222,-0.007190412782956059,0.16830892143808257,0.09747003994673768
1766.9172932330825,-0.005858854860186418,0.1696404793608522,0.10412782956058589
1769.423558897243,0.0021304926764314247,0.17976031957390146,0.11478029294274301
1771.9298245614036,0.010652463382157125,0.17416777629826896,0.11264980026631158
1774.436090225564,0.04234354194407457,0.17896138482023968,0.11744340878828229
1776.9423558897242,0.07616511318242343,0.16830892143808257,0.11478029294274301
1779.4486215538845,0.1014647137150466,0.16564580559254327,0.11637816245006657
1781.954887218045,0.14327563249001332,0.16750998668442077,0.12197070572569907
1784.4611528822056,0.1829560585885486,0.16058588548601865,0.11531291611185086
1786.967418546366,0.21438082556591212,0.15312916111850866,0.12516644474034622
1789.4736842105262,0.2484687083888149,0.14087882822902797,0.11770972037283622
1791.9799498746866,0.2673768308921438,0.14886817576564582,0.11824234354194407
1794.486215538847,0.2860186418109188,0.12090545938748336,0.11584553928095873
1796.9924812030076,0.3051930758988016,0.12356857523302264,0.10838881491344873
1799.498746867168,0.28894806924101196,0.11877496671105194,0.11344873501997337
1802.0050125313282,0.2820239680426099,0.11557922769640479,0.10812250332889481
1804.5112781954886,0.24047936085219707,0.081491344873502,0.10865512649800266
1807.017543859649,0.20639147802929428,0.08761651131824234,0.1051930758988016
1809.5238095238096,0.16830892143808257,0.085219707057257,0.10732356857523302
1812.03007518797,0.13129161118508656,0.06631158455392809,0.11264980026631158
1814.5363408521303,0.10439414114513981,0.07350199733688416,0.11717709720372836
1817.0426065162906,0.07243675099866845,0.07643142476697737,0.11611185086551265
1819.548872180451,0.04234354194407457,0.06631158455392809,0.11051930758988016
1822.0551378446116,0.017043941411451397,0.056990679094540614,0.11131824234354194
1824.561403508772,-0.006391478029294274,0.05992010652463382,0.10359520639147803
1827.0676691729323,-0.019973368841544607,0.05033288948069241,0.0966711051930759
1829.5739348370926,-0.037283621837549935,0.051131824234354195,0.09454061251664447
1832.080200501253,-0.04633821571238349,0.04766977363515313,0.08548601864181092
1834.5864661654136,-0.06284953395472703,0.047936085219707054,0.07749667110519308
1837.092731829574,-0.06870838881491345,0.04474034620505992,0.07989347536617843
1839.5989974937343,-0.06284953395472703,0.03914780292942743,0.0729693741677763
1842.1052631578946,-0.05885486018641811,0.02929427430093209,0.06577896138482024
1844.611528822055,-0.04474034620505992,0.03062583222370173,0.050066577896138484
1847.1177944862156,-0.03169107856191744,0.021837549933422105,0.04660452729693742
1849.624060150376,-0.02237017310252996,0.019973368841544607,0.03382157123834887
1852.1303258145363,-0.008521970705725699,0.02663115845539281,0.033288948069241014
1854.6365914786966,-0.016245006657789614,0.02077230359520639,0.025033288948069242
1857.142857142857,-0.01118508655126498,0.0237017310252996,0.019973368841544607
1859.6491228070176,-0.0151797603195739,0.017576564580559253,0.005858854860186418
1862.155388471178,-0.02822902796271638,0.013315579227696404,0.009587217043941412
1864.6616541353383,-0.04154460719041278,0.015712383488681758,0.007989347536617843
1867.1679197994986,-0.05885486018641811,0.0074567243675099865,-0.006125166444740347
1869.6741854636591,-0.07083888149134487,0.009587217043941412,-0.006657789613848202
1872.1804511278197,-0.09560585885486018,0.0039946737683089215,-0.010652463382157125
1874.68671679198,-0.1118508655126498,0.002929427430093209,-0.014913448735019973
1877.1929824561403,-0.1299600532623169,0.007190412782956059,-0.017310252996005325
1879.6992481203006,-0.1366178428761651,0.011717709720372836,-0.023968042609853527
1882.2055137844611,-0.12942743009320906,0.0074567243675099865,-0.027696404793608524
1884.7117794486217,-0.1233022636484687,0.012516644474034621,-0.03914780292942743
1887.218045112782,-0.12543275632490014,-0.010386151797603195,-0.040213049267643144
1889.7243107769423,-0.11930758988015978,-0.014913448735019973,-0.059121171770972036
1892.2305764411026,-0.09986684420772303,-0.00985352862849534,-0.057789613848202394
1894.7368421052631,-0.07163781624500666,-0.006924101198402131,-0.06711051930758988
1897.2431077694237,-0.05166444740346205,-0.01411451398135819,-0.06657789613848203
1899.749373433584,-0.021837549933422105,-0.014913448735019973,-0.08868175765645805
1902.2556390977443,-0.008788282290279626,-0.010918774966711052,-0.08628495339547271
1904.7619047619046,0.027430093209054592,-0.02343541944074567,-0.09001331557922769
1907.2681704260651,0.06258322237017311,-0.0426098535286285,-0.09906790945406126
1909.7744360902257,0.07669773635153129,-0.03648468708388815,-0.11238348868175765
1912.280701754386,0.09800266311584555,-0.02796271637816245,-0.11451398135818908
1914.7869674185463,0.11344873501997337,-0.03994673768308921,-0.11877496671105194
1917.2932330827066,0.11105193075898802,-0.030093209054593874,-0.12756324900133156
1919.7994987468671,0.11158455392809587,-0.026098535286284953,-0.1233022636484687
1922.3057644110277,0.09747003994673768,-0.028761651131824235,-0.12569906790945407
1924.812030075188,0.09826897470039947,-0.02663115845539281,-0.118508655126498
1927.3182957393483,0.0758988015978695,-0.0237017310252996,-0.125965379494008
1929.8245614035086,0.07616511318242343,-0.028495339547270307,-0.12729693741677764
1932.3308270676691,0.04980026631158455,-0.024766977363515314,-0.12383488681757657
1934.8370927318297,0.04873501997336884,-0.01544607190412783,-0.11770972037283622
1937.34335839599,0.02077230359520639,-0.013315579227696404,-0.12623169107856191
1939.8496240601503,0.010119840213049267,-0.01677762982689747,-0.125965379494008
1942.3558897243106,-0.010386151797603195,-0.006391478029294274,-0.12729693741677764
1944.8621553884711,-0.018908122503328895,-0.007723035952063915,-0.12862849533954726
1947.3684210526317,-0.03275632490013316,-0.011984021304926764,-0.12303595206391478
1949.874686716792,-0.034087882822902794,0.004793608521970706,-0.12490013315579228
1952.3809523809523,-0.045272969374167776,-0.009320905459387484,-0.12250332889480692
1954.8872180451126,-0.041278295605858856,-0.011984021304926764,-0.11664447403462051
1957.3934837092731,-0.04474034620505992,-0.0015978695073235686,-0.1233022636484687
1959.8997493734337,-0.04687083888149134,-0.005858854860186418,-0.11398135818908123
1962.406015037594,-0.03195739014647137,-0.019174434087882823,-0.1203728362183755
1964.9122807017543,-0.03275632490013316,-0.005059920106524634,-0.12090545938748336
1967.4185463659146,-0.02077230359520639,-0.005858854860186418,-0.11451398135818908
1969.9248120300751,-0.022902796271637816,-0.018109187749667112,-0.10679094540612516
1972.4310776942357,-0.01544607190412783,-0.01118508655126498,-0.10039946737683089
1974.937343358396,-0.012250332889480693,-0.017842876165113184,-0.11904127829560586
1977.4436090225563,0.0013315579227696406,-0.017310252996005325,-0.10945406125166444
1979.9498746867166,-0.0021304926764314247,-0.013848202396804262,-0.10386151797603196
1982.4561403508771,-0.003195739014647137,-0.022636484687083888,-0.10279627163781624
1984.9624060150377,-0.005059920106524634,-0.01837549933422104,-0.10439414114513981
1987.468671679198,0.006125166444740347,-0.017310252996005325,-0.10173102529960053
1989.9749373433583,-0.004793608521970706,-0.015712383488681758,-0.1014647137150466
1992.4812030075186,0.0013315579227696406,-0.013581890812250332,-0.10572569906790945
1994.9874686716792,0.0018641810918774966,-0.020505992010652462,-0.09906790945406126
1997.4937343358397,0.010386151797603195,-0.01411451398135819,-0.09320905459387484
2000,0.019973368841544607,-0.03115845539280959,-0.09081225033288948
2002.5062656641603,0.02822902796271638,-0.034087882822902794,-0.08015978695073235
2005.0125313283208,0.03595206391478029,-0.03275632490013316,-0.07350199733688416
2007.5187969924812,0.04660452729693742,-0.045006657789613845,-0.07190412782956059
2010.0250626566417,0.05885486018641811,-0.038082556591211715,-0.056990679094540614
2012.531328320802,0.07057256990679095,-0.045006657789613845,-0.054061251664447404
2015.0375939849623,0.07909454061251664,-0.04607190412782956,-0.05299600532623169
2017.5438596491229,0.08468708388814913,-0.04953395472703063,-0.04234354194407457
2020.0501253132832,0.1014647137150466,-0.045272969374167776,-0.03754993342210386
2022.5563909774437,0.1107856191744341,-0.05193075898801598,-0.029560585885486018
2025.062656641604,0.12490013315579228,-0.03968042609853529,-0.024766977363515314
2027.5689223057643,0.1355525965379494,-0.03568575233022637,-0.018908122503328895
2030.0751879699249,0.12889480692410119,-0.021571238348868177,-0.020239680426098534
2032.5814536340852,0.1430093209054594,-0.024500665778961386,-0.006924101198402131
2035.0877192982457,0.14620505992010652,-0.022636484687083888,-0.011984021304926764
2037.593984962406,0.13981358189081225,-0.01970705725699068,-0.0018641810918774966
2040.1002506265663,0.125965379494008,-0.014913448735019973,-0.010918774966711052
2042.6065162907269,0.12490013315579228,-0.005326231691078562,-0.0034620505992010654
2045.1127819548872,0.11451398135818908,-0.004260985352862849,0.0015978695073235686
2047.6190476190477,0.10013315579227697,0.002396804260985353,0.002929427430093209
2050.125313283208,0.09427430093209055,0.01411451398135819,0.00559254327563249
2052.6315789473683,0.0996005326231691,0.006125166444740347,0.007723035952063915
2055.1378446115286,0.1089214380825566,0.007989347536617843,0.01411451398135819
2057.6441102756894,0.12010652463382157,0.013581890812250332,0.018908122503328895
2060.1503759398497,0.13901464713715048,0.019973368841544607,0.02929427430093209
2062.65664160401,0.14806924101198402,0.023169107856191744,0.02636484687083888
2065.1629072681703,0.16378162450066577,0.021571238348868177,0.03382157123834887
2067.6691729323306,0.1792276964047936,0.02929427430093209,0.03648468708388815
2070.1754385964914,0.19094540612516644,0.010386151797603195,0.03355525965379494
2072.6817042606517,0.20612516644474035,0.005858854860186418,0.03914780292942743
2075.187969924812,0.21384820239680427,0.010386151797603195,0.03914780292942743
2077.6942355889723,0.2234354194407457,0.021571238348868177,0.037017310252996004
2080.2005012531326,0.24953395472703063,0.012516644474034621,0.031424766977363516
2082.7067669172934,0.26577896138482027,0.014380825565912117,0.029560585885486018
2085.2130325814537,0.27403462050599203,0.01544607190412783,0.023968042609853527
2087.719298245614,0.2945406125166445,0.014647137150466045,0.01970705725699068
2090.2255639097743,0.30545938748335555,0.01544607190412783,0.01677762982689747
2092.7318295739346,0.3233022636484687,0.011984021304926764,0.018109187749667112
2095.2380952380954,0.3344873501997337,0.009320905459387484,0.004793608521970706
2097.7443609022557,0.3533954727030626,0.009587217043941412,-0.0002663115845539281
2100.250626566416,0.37123834886817575,0.0151797603195739,-0.0034620505992010654
2102.7568922305763,0.38428761651131826,0.009054593874833556,-0.0005326231691078562
2105.2631578947367,0.41091877496671103,0.014913448735019973,-0.01651131824234354
2107.7694235588974,0.4268974700399467,0.013581890812250332,-0.006924101198402131
2110.2756892230577,0.4529960053262317,0.014647137150466045,-0.013581890812250332
2112.781954887218,0.4745672436750999,0.01970705725699068,-0.025565912117177098
2115.2882205513783,0.5014647137150466,0.012782956058588549,-0.021837549933422105
2117.7944862155387,0.5198402130492676,0.011717709720372836,-0.024766977363515314
2120.3007518796994,0.5411451398135819,0.014913448735019973,-0.021571238348868177
2122.8070175438597,0.5555259653794941,0.024766977363515314,-0.027163781624500664
2125.31328320802,0.5842876165113182,0.020505992010652462,-0.03249001331557923
2127.8195488721803,0.6167776298268974,0.01970705725699068,-0.034354194407456726
2130.3258145363407,0.6471371504660453,0.01944074567243675,-0.037017310252996004
2132.8320802005014,0.6844207723035952,0.027430093209054592,-0.04154460719041278
2135.3383458646617,0.7355525965379494,0.014647137150466045,-0.03941411451398136
2137.844611528822,0.7744340878828229,0.002396804260985353,-0.04553928095872171
2140.3508771929824,0.8306258322237017,0.010652463382157125,-0.0426098535286285
2142.8571428571427,0.8732356857523302,0.002929427430093209,-0.04553928095872171
2145.3634085213034,0.9326231691078561,-0.002396804260985353,-0.043142476697736354
2147.8696741854637,0.9922769640479361,-0.0010652463382157123,-0.043941411451398134
2150.375939849624,1.0372836218375499,-0.0013315579227696406,-0.04181091877496671
2152.8822055137844,1.084953395472703,-0.009320905459387484,-0.04474034620505992
2155.3884711779447,1.1435419440745673,-0.01944074567243675,-0.04207723035952064
2157.8947368421054,1.1720372836218376,-0.00825565912117177,-0.03195739014647137
2160.4010025062657,1.2085219707057258,-0.002396804260985353,-0.03488681757656458
2162.907268170426,1.2383488681757657,-0.004793608521970706,-0.035153129161118506
2165.4135338345864,1.251131824234354,-0.005326231691078562,-0.035153129161118506
2167.9197994987467,1.2580559254327564,0.006924101198402131,-0.027163781624500664
2170.4260651629074,1.2620505992010653,-0.01118508655126498,-0.025565912117177098
2172.9323308270677,1.255659121171771,-0.002929427430093209,-0.02822902796271638
2175.438596491228,1.251930758988016,0.0018641810918774966,-0.038348868175765646
2177.9448621553884,1.2319573901464713,0.002663115845539281,-0.020239680426098534
2180.4511278195487,1.2245006657789614,0.018109187749667112,-0.023169107856191744
2182.9573934837094,1.2141145139813583,0.01837549933422104,-0.024766977363515314
2185.4636591478697,1.210918774966711,0.03169107856191744,-0.03169107856191744
2187.96992481203,1.2101198402130493,0.02929427430093209,-0.01651131824234354
2190.4761904761904,1.222103861517976,0.041011984021304924,-0.02130492676431425
2192.9824561403507,1.2095872170439415,0.041278295605858856,-0.03169107856191744
2195.4887218045114,1.2165113182423435,0.041278295605858856,-0.03302263648468708
2197.9949874686718,1.2202396804260984,0.04447403462050599,-0.03568575233022637
2200.501253132832,1.2234354194407457,0.0474034620505992,-0.029027962716378163
2203.0075187969924,1.2162450066577897,0.06231691078561918,-0.026098535286284953
2205.5137844611527,1.2295605858854861,0.07669773635153129,-0.021571238348868177
2208.0200501253134,1.2207723035952065,0.07270306258322237,-0.018908122503328895
2210.5263157894738,1.2324900133155792,0.07083888149134487,-0.022103861517976033
2213.032581453634,1.2340878828229027,0.07749667110519308,-0.02529960053262317
2215.5388471177944,1.2412782956058588,0.06471371504660453,-0.023968042609853527
2218.0451127819547,1.2431424766977364,0.06711051930758988,-0.013315579227696404
2220.5513784461155,1.2364846870838881,0.06790945406125166,-0.010918774966711052
2223.0576441102758,1.2327563249001332,0.06471371504660453,-0.011984021304926764
2225.563909774436,1.237017310252996,0.07030625832223701,-0.015712383488681758
2228.0701754385964,1.2335552596537949,0.06284953395472703,-0.009054593874833556
2230.5764411027567,1.2375499334221038,0.06577896138482024,0.0007989347536617843
2233.0827067669175,1.2396804260985352,0.057789613848202394,-0.004793608521970706
2235.5889724310778,1.2463382157123835,0.05992010652463382,0.007989347536617843
2238.095238095238,1.2476697736351532,0.05565912117177097,-0.008788282290279626
2240.6015037593984,1.2711051930758988,0.047137150466045274,0.003195739014647137
2243.1077694235587,1.2972037283621838,0.048202396804260986,0.004527296937416778
2245.6140350877195,1.3177097203728363,0.04367509986684421,-0.0039946737683089215
2248.1203007518798,1.3560585885486018,0.05725699067909454,-0.004527296937416778
2250.62656641604,1.4133155792276964,0.04900133155792277,-0.004527296937416778
2253.1328320802004,1.455126498002663,0.040745672436751,-0.006657789613848202
2255.6390977443607,1.5019973368841544,0.04154460719041278,-0.007190412782956059
2258.1453634085215,1.5344873501997336,0.05352862849533955,-0.018641810918774968
2260.6516290726818,1.5800266311584554,0.04367509986684421,-0.03355525965379494
2263.157894736842,1.6181091877496672,0.045272969374167776,-0.03302263648468708
2265.6641604010024,1.6495339547270307,0.04633821571238349,-0.03195739014647137
2268.1704260651627,1.6908122503328895,0.04873501997336884,-0.03062583222370173
2270.6766917293235,1.733155792276964,0.050066577896138484,-0.03994673768308921
2273.182957393484,1.763781624500666,0.05272969374167776,-0.036218375499334224
2275.689223057644,1.8173102529960052,0.050066577896138484,-0.03275632490013316
2278.1954887218044,1.8721704394141145,0.054061251664447404,-0.03648468708388815
2280.7017543859647,1.929693741677763,0.050865512649800264,-0.041011984021304924
2283.2080200501255,1.9842876165113184,0.04953395472703063,-0.04607190412782956
2285.714285714286,2.0423435419440747,0.05139813581890812,-0.04474034620505992
2288.220551378446,2.103861517976032,0.06870838881491345,-0.047936085219707054
2290.7268170426064,2.1659121171770974,0.0692410119840213,-0.043941411451398134
2293.2330827067667,2.247936085219707,0.06817576564580559,-0.045006657789613845
2295.7393483709275,2.3054593874833555,0.06604527296937417,-0.05326231691078562
2298.245614035088,2.3789613848202396,0.07003994673768309,-0.05965379494007989
2300.751879699248,2.443941411451398,0.07217043941411451,-0.06338215712383488
2303.2581453634084,2.5166444740346203,0.07323568575233022,-0.06498002663115846
2305.7644110275687,2.5845539280958723,0.07536617842876166,-0.07243675099866845
2308.2706766917295,2.655659121171771,0.07456724367509987,-0.08442077230359521
2310.77694235589,2.711318242343542,0.06151797603195739,-0.077762982689747
2313.28320802005,2.7640479360852197,0.06284953395472703,-0.08415446071904129
2315.7894736842104,2.8234354194407456,0.07163781624500666,-0.08655126498002663
2318.2957393483707,2.8860186418109186,0.07536617842876166,-0.0929427430093209
2320.8020050125315,2.922503328894807,0.07936085219707058,-0.0966711051930759
2323.308270676692,2.9581890812250333,0.09400798934753662,-0.10412782956058589
2325.814536340852,2.993342210386152,0.07163781624500666,-0.09720372836218376
2328.3208020050124,3.0178428761651133,0.07323568575233022,-0.10359520639147803
2330.8270676691727,3.0245006657789615,0.07243675099866845,-0.11211717709720373
2333.3333333333335,3.0338215712383487,0.06284953395472703,-0.11051930758988016
2335.839598997494,3.0279627163781626,0.05166444740346205,-0.118508655126498
2338.345864661654,3.0354194407456725,0.050865512649800264,-0.125965379494008
2340.8521303258144,3.0380825565912115,0.05565912117177097,-0.13102529960053264
2343.3583959899747,3.028229027962716,0.06018641810918775,-0.13501997336884156
2345.8646616541355,3.004260985352863,0.05992010652463382,-0.14247669773635152
2348.370927318296,2.9906790945406123,0.05992010652463382,-0.14460719041278294
2350.877192982456,2.9504660452729694,0.05139813581890812,-0.15073235685752331
2353.3834586466164,2.929427430093209,0.045272969374167776,-0.15872170439414116
2355.8897243107767,2.8982689747003993,0.04367509986684421,-0.15952063914780293
2358.3959899749375,2.8652463382157123,0.0559254327563249,-0.16804260985352862
2360.902255639098,2.8487350199733688,0.05193075898801598,-0.1773635153129161
2363.408521303258,2.8322237017310252,0.0607190412782956,-0.18055925432756326
2365.9147869674184,2.82237017310253,0.06604527296937417,-0.18561917443408787
2368.4210526315787,2.8047936085219707,0.07190412782956059,-0.19440745672436752
2370.9273182957395,2.8058588548601864,0.07137150466045274,-0.19494007989347537
2373.4335839599,2.7914780292942742,0.0711051930758988,-0.19973368841544606
2375.93984962406,2.7800266311584556,0.08308921438082556,-0.2133155792276964
2378.4461152882204,2.7699067909454063,0.08175765645805592,-0.21438082556591212
2380.9523809523807,2.752330226364847,0.08202396804260985,-0.21278295605858855
2383.4586466165415,2.737150466045273,0.07456724367509987,-0.2284953395472703
2385.964912280702,2.741145139813582,0.09587217043941411,-0.22237017310252996
2388.471177944862,2.7462050599201064,0.09347536617842876,-0.21438082556591212
2390.9774436090224,2.7536617842876163,0.09081225033288948,-0.20745672436750998
2393.4837092731827,2.7747003994673767,0.09161118508655126,-0.20825565912117178
2395.9899749373435,2.7858854860186417,0.08442077230359521,-0.20719041278295605
2398.496240601504,2.817576564580559,0.0929427430093209,-0.21278295605858855
2401.002506265664,2.845006657789614,0.08362183754993342,-0.19440745672436752
2403.5087719298244,2.8841544607190412,0.09267643142476698,-0.19866844207723036
2406.0150375939847,2.926231691078562,0.08601864181091877,-0.19440745672436752
2408.5213032581455,2.969906790945406,0.0796271637816245,-0.1914780292942743
2411.027568922306,3.004260985352863,0.08362183754993342,-0.1933422103861518
2413.533834586466,3.0569906790945405,0.08628495339547271,-0.18455392809587218
2416.0401002506264,3.107057256990679,0.07989347536617843,-0.18561917443408787
2418.5463659147867,3.169374167776298,0.08735019973368842,-0.1885486018641811
2421.0526315789475,3.21491344873502,0.08282290279627164,-0.19973368841544606
2423.558897243108,3.252996005326232,0.06870838881491345,-0.19760319573901464
2426.065162907268,3.2817576564580557,0.058055925432756325,-0.20213049267643143
2428.5714285714284,3.293741677762983,0.047137150466045274,-0.20213049267643143
2431.0776942355888,3.296671105193076,0.037017310252996004,-0.18801597869507325
2433.5839598997495,3.2980026631158457,0.034354194407456726,-0.1922769640479361
2436.09022556391,3.293209054593875,0.029027962716378163,-0.19547270306258321
2438.59649122807,3.274833555259654,0.025832223701731025,-0.20053262316910786
2441.1027568922304,3.2508655126498,0.017842876165113184,-0.1952063914780293
2443.6090225563908,3.2282290279627164,0.018109187749667112,-0.19627163781624501
2446.1152882205515,3.210918774966711,0.009587217043941412,-0.19014647137150467
2448.621553884712,3.1834886817576566,0.009054593874833556,-0.19893475366178429
2451.127819548872,3.1685752330226364,0.004793608521970706,-0.19840213049267644
2453.6340852130324,3.1533954727030626,0.002929427430093209,-0.1858854860186418
2456.1403508771928,3.1376830892143808,-0.007723035952063915,-0.18801597869507325
2458.6466165413535,3.1241011984021303,-0.014647137150466045,-0.18934753661784287
2461.152882205514,3.133422103861518,-0.020505992010652462,-0.18801597869507325
2463.659147869674,3.1355525965379494,-0.025832223701731025,-0.19307589880159787
2466.1654135338345,3.1563249001331557,-0.029826897470039946,-0.18322237017310253
2468.6716791979948,3.174434087882823,-0.0388814913448735,-0.19387483355525964
2471.1779448621555,3.211717709720373,-0.04234354194407457,-0.18908122503328895
2473.684210526316,3.247669773635153,-0.032223701731025296,-0.1922769640479361
2476.190476190476,3.2721704394141145,-0.038082556591211715,-0.19547270306258321
2478.6967418546365,3.313981358189081,-0.04207723035952064,-0.19494007989347537
2481.2030075187968,3.3504660452729693,-0.050066577896138484,-0.20452729693741678
2483.7092731829575,3.3912117177097203,-0.051131824234354195,-0.20426098535286286
2486.215538847118,3.433821571238349,-0.06284953395472703,-0.20745672436750998
2488.721804511278,3.459387483355526,-0.05565912117177097,-0.2159786950732357
2491.2280701754385,3.4809587217043942,-0.06311584553928096,-0.21251664447403462
2493.734335839599,3.5025299600532622,-0.06018641810918775,-0.23062583222370173
2496.2406015037595,3.514780292942743,-0.06844207723035953,-0.22636484687083888
2498.74686716792,3.5235685752330226,-0.06604527296937417,-0.23488681757656457
2501.25313283208,3.5235685752330226,-0.0711051930758988,-0.23382157123834887
2503.7593984962405,3.5246338215712383,-0.07509986684420772,-0.24181091877496672
2506.265664160401,3.523035952063915,-0.07190412782956059,-0.2567243675099867
2508.7719298245615,3.5054593874833557,-0.0758988015978695,-0.24873501997336883
2511.278195488722,3.5030625832223703,-0.07430093209054593,-0.2572569906790945
2513.784461152882,3.4870838881491344,-0.07989347536617843,-0.2617842876165113
2516.2907268170425,3.4921438082556593,-0.08175765645805592,-0.27057256990679096
2518.7969924812032,3.496138482023968,-0.07909454061251664,-0.2809587217043941
2521.3032581453635,3.503861517976032,-0.08681757656458056,-0.2860186418109188
2523.809523809524,3.5019973368841546,-0.08095872170439414,-0.2932090545938748
2526.315789473684,3.4974700399467378,-0.08308921438082556,-0.2956058588548602
2528.8220551378445,3.5017310252996006,-0.10252996005326231,-0.3059920106524634
2531.328320802005,3.511318242343542,-0.09560585885486018,-0.3033288948069241
2533.8345864661655,3.5169107856191744,-0.0996005326231691,-0.30173102529960055
2536.340852130326,3.5280958721704394,-0.09880159786950732,-0.30492676431424764
2538.847117794486,3.539813581890812,-0.11211717709720373,-0.2958721704394141
2541.3533834586465,3.5501997336884155,-0.12436750998668442,-0.2900133155792277
2543.8596491228072,3.5754993342210386,-0.1299600532623169,-0.29533954727030626
2546.3659147869676,3.585619174434088,-0.13874833555259652,-0.28655126498002664
2548.872180451128,3.592010652463382,-0.13448735019973368,-0.2846870838881491
2551.378446115288,3.5973368841544606,-0.14753661784287617,-0.26657789613848204
2553.8847117794485,3.5984021304926763,-0.14274300932090547,-0.2732356857523302
2556.390977443609,3.60745672436751,-0.14647137150466044,-0.2572569906790945
2558.8972431077696,3.603728362183755,-0.14061251664447402,-0.24580559254327564
2561.40350877193,3.613848202396804,-0.14540612516644474,-0.23648468708388815
2563.90977443609,3.613848202396804,-0.14460719041278294,-0.22210386151797604
2566.4160401002505,3.607723035952064,-0.1515312916111851,-0.20878828229027963
2568.9223057644112,3.6069241011984023,-0.14886817576564582,-0.19840213049267644
2571.4285714285716,3.5872170439414113,-0.16724367509986685,-0.18908122503328895
2573.934837092732,3.5648468708388816,-0.16458055925432757,-0.1733688415446072
2576.441102756892,3.537416777629827,-0.17656458055925434,-0.16644474034620507
2578.9473684210525,3.4972037283621837,-0.1611185086551265,-0.1584553928095872
2581.453634085213,3.4577896138482025,-0.16165113182423435,-0.14727030625832224
2583.9598997493736,3.3912117177097203,-0.16191744340878828,-0.13981358189081225
2586.466165413534,3.3379494007989345,-0.15605858854860186,-0.12862849533954726
2588.972431077694,3.278295605858855,-0.16138482023968043,-0.12170439414114514
2591.4786967418545,3.2047936085219706,-0.16724367509986685,-0.1070572569906791
2593.9849624060153,3.118508655126498,-0.1648468708388815,-0.10386151797603196
2596.4912280701756,3.0242343541944074,-0.16617842876165112,-0.08202396804260985
2598.997493734336,2.937683089214381,-0.16750998668442077,-0.0748335552596538
2601.503759398496,2.860186418109188,-0.1640479360852197,-0.0607190412782956
2604.0100250626565,2.7717709720372836,-0.1659121171770972,-0.05858854860186418
2606.516290726817,2.6806924101198404,-0.1648468708388815,-0.04846870838881491
2609.0225563909776,2.6085219707057257,-0.17789613848202396,-0.04181091877496671
2611.528822055138,2.5456724367509986,-0.17896138482023968,-0.034354194407456726
2614.035087719298,2.4857523302263647,-0.17576564580559254,-0.021571238348868177
2616.5413533834585,2.4090545938748336,-0.18375499334221038,-0.01544607190412783
2619.0476190476193,2.363249001331558,-0.20026631158455394,0
2621.5538847117796,2.300133155792277,-0.1970705725699068,-0.002396804260985353
2624.06015037594,2.270306258322237,-0.20612516644474035,0.007190412782956059
2626.5664160401,2.222902796271638,-0.20585885486018643,0.0013315579227696406
2629.0726817042605,2.199733688415446,-0.19280958721704394,0.0039946737683089215
2631.578947368421,2.1784287616511318,-0.20159786950732356,0.004260985352862849
2634.0852130325816,2.1643142476697736,-0.19573901464713714,0.00825565912117177
2636.591478696742,2.159254327563249,-0.18934753661784287,0.007723035952063915
2639.097744360902,2.1683089214380824,-0.19627163781624501,0.012516644474034621
2641.6040100250625,2.174167776298269,-0.20159786950732356,0.0151797603195739
2644.1102756892233,2.1861517976031957,-0.1981358189081225,0.008521970705725699
2646.6165413533836,2.1904127829560585,-0.20452729693741678,0.008521970705725699
2649.122807017544,2.214647137150466,-0.19280958721704394,0
2651.629072681704,2.237017310252996,-0.19014647137150467,-0.006657789613848202
2654.1353383458645,2.2569906790945407,-0.1922769640479361,-0.01677762982689747
2656.641604010025,2.307589880159787,-0.19467376830892144,-0.020505992010652462
2659.1478696741856,2.3467376830892146,-0.19121171770972037,-0.02796271637816245
2661.654135338346,2.3981358189081226,-0.17762982689747003,-0.03062583222370173
2664.160401002506,2.4402130492676433,-0.1829560585885486,-0.04181091877496671
2666.6666666666665,2.489747003994674,-0.16937416777629827,-0.050865512649800264
2669.1729323308273,2.5392809587217045,-0.17203728362183754,-0.05459387483355526
2671.6791979949876,2.5946737683089216,-0.17070572569906792,-0.07030625832223701
2674.185463659148,2.646870838881491,-0.16884154460719042,-0.07403462050599201
2676.691729323308,2.6873501997336886,-0.15685752330226366,-0.08495339547270306
2679.1979949874685,2.725699067909454,-0.15419440745672436,-0.09267643142476698
2681.704260651629,2.7533954727030627,-0.155525965379494,-0.09986684420772303
2684.2105263157896,2.784553928095872,-0.13821571238348868,-0.10492676431424768
2686.71679197995,2.8154460719041277,-0.13288948069241013,-0.11051930758988016
2689.22305764411,2.8324900133155793,-0.12117177097203728,-0.1137150466045273
2691.7293233082705,2.8623169107856192,-0.10359520639147803,-0.12516644474034622
2694.2355889724313,2.8870838881491343,-0.08788282290279627,-0.13155792276964048
2696.7418546365916,2.9203728362183754,-0.08282290279627164,-0.13821571238348868
2699.248120300752,2.9619174434087885,-0.05858854860186418,-0.13528628495339548
2701.754385964912,2.9770972037283623,-0.05033288948069241,-0.14833555259653794
2704.2606516290725,3.0133155792276964,-0.05272969374167776,-0.1440745672436751
2706.766917293233,3.0415446071904126,-0.04154460719041278,-0.15525965379494008
2709.2731829573936,3.0719041278295607,-0.04340878828229028,-0.1525965379494008
2711.779448621554,3.0982689747003995,-0.03169107856191744,-0.151797603195739
2714.285714285714,3.1342210386151796,-0.03355525965379494,-0.1573901464713715
2716.7919799498745,3.159254327563249,-0.031424766977363516,-0.1611185086551265
2719.2982456140353,3.17896138482024,-0.015712383488681758,-0.15765645805592543
2721.8045112781956,3.2175765645805594,-0.01944074567243675,-0.1603195739014647
2724.310776942356,3.2316910785619175,0.011984021304926764,-0.1499334221038615
2726.817042606516,3.251664447403462,-0.011717709720372836,-0.14354194407456725
2729.3233082706765,3.270039946737683,-0.010918774966711052,-0.1430093209054594
2731.829573934837,3.2817576564580557,-0.0013315579227696406,-0.1459387483355526
2734.3358395989976,3.2929427430093208,-0.006125166444740347,-0.13635153129161118
2736.842105263158,3.3022636484687085,-0.005059920106524634,-0.14886817576564582
2739.3483709273182,3.284154460719041,0.003195739014647137,-0.14354194407456725
2741.8546365914785,3.295073235685752,0.007190412782956059,-0.14886817576564582
2744.3609022556393,3.2868175765645806,0.009054593874833556,-0.15499334221038616
2746.8671679197996,3.2796271637816243,0.0007989347536617843,-0.15792276964047935
2749.37343358396,3.2764314247669772,0.0005326231691078562,-0.16271637816245008
2751.8796992481202,3.2617842876165115,0.007723035952063915,-0.15685752330226366
2754.3859649122805,3.2394141145139814,-0.006125166444740347,-0.16324900133155792
2756.892230576441,3.2194407456724368,-0.0015978695073235686,-0.18055925432756326
2759.3984962406016,3.1909454061251665,0.002396804260985353,-0.18322237017310253
2761.904761904762,3.1829560585885486,0.008521970705725699,-0.20985352862849535
2764.4110275689222,3.163249001331558,0.010119840213049267,-0.21997336884154461
2766.9172932330825,3.1467376830892144,0.020239680426098534,-0.2266311584553928
2769.4235588972433,3.1435419440745673,0.0037283621837549932,-0.24314247669773636
2771.9298245614036,3.1494007989347534,0.007989347536617843,-0.25912117177097205
2774.436090225564,3.1675099866844207,0.002663115845539281,-0.26524633821571236
2776.9423558897242,3.189081225033289,-0.0021304926764314247,-0.2804260985352863
2779.4486215538845,3.211984021304927,-0.010918774966711052,-0.2982689747003995
2781.954887218045,3.2356857523302263,-0.013315579227696404,-0.3025299600532623
2784.4611528822056,3.2764314247669772,-0.00559254327563249,-0.3137150466045273
2786.967418546366,3.296671105193076,-0.011451398135818908,-0.3256990679094541
2789.4736842105262,3.3198402130492677,-0.011984021304926764,-0.33288948069241014
2791.9799498746866,3.3416777629826897,-0.018908122503328895,-0.340878828229028
2794.4862155388473,3.3496671105193077,-0.028495339547270307,-0.34247669773635153
2796.9924812030076,3.356058588548602,-0.03062583222370173,-0.3470039946737683
2799.498746867168,3.3478029294274303,-0.0303595206391478,-0.35233022636484684
2802.0050125313282,3.3283621837549933,-0.02822902796271638,-0.35978695073235684
2804.5112781954886,3.3051930758988015,-0.034354194407456726,-0.35792276964047937
2807.017543859649,3.2569906790945407,-0.02929427430093209,-0.3483355525965379
2809.5238095238096,3.224500665778961,-0.03382157123834887,-0.355525965379494
2812.03007518797,3.178695073235686,-0.038348868175765646,-0.3494007989347537
2814.5363408521303,3.109720372836218,-0.032223701731025296,-0.33794940079893476
2817.0426065162906,3.045272969374168,-0.04234354194407457,-0.3382157123834887
2819.5488721804513,2.9579227696404793,-0.03941411451398136,-0.33608521970705724
2822.0551378446116,2.8615179760319576,-0.03382157123834887,-0.32250332889480693
2824.561403508772,2.7464713715046605,-0.03595206391478029,-0.3121171770972037
2827.0676691729323,2.634354194407457,-0.013848202396804262,-0.30892143808255657
2829.5739348370926,2.51051930758988,-0.017043941411451397,-0.28521970705725697
2832.080200501253,2.389613848202397,-0.0010652463382157123,-0.2804260985352863
2834.5864661654136,2.273768308921438,0.010386151797603195,-0.25778961384820237
2837.092731829574,2.1651131824234353,0.037283621837549935,-0.26311584553928097
2839.5989974937343,2.0615179760319573,0.04367509986684421,-0.24873501997336883
2842.1052631578946,1.9595206391478028,0.05059920106524634,-0.22956058588548603
2844.6115288220553,1.848202396804261,0.0559254327563249,-0.23302263648468707
2847.1177944862156,1.763781624500666,0.05965379494007989,-0.2207723035952064
2849.624060150376,1.674034620505992,0.07350199733688416,-0.22316910785619173
2852.1303258145363,1.5973368841544606,0.08015978695073235,-0.21651131824234354
2854.6365914786966,1.5272969374167775,0.0948069241011984,-0.20692410119840213
2857.142857142857,1.4809587217043942,0.10439414114513981,-0.2018641810918775
2859.6491228070176,1.4436750998668442,0.09400798934753662,-0.2018641810918775
2862.155388471178,1.4207723035952065,0.10545938748335552,-0.19467376830892144
2864.6616541353383,1.4122503328894807,0.11451398135818908,-0.19573901464713714
2867.1679197994986,1.3986684420772304,0.10972037283621837,-0.19547270306258321
2869.6741854636593,1.400266311584554,0.12090545938748336,-0.19467376830892144
2872.1804511278197,1.4063914780292943,0.13262316910785618,-0.20079893475366178
2874.68671679198,1.4194407456724367,0.13501997336884156,-0.20053262316910786
2877.1929824561403,1.4276964047936085,0.13209054593874833,-0.19094540612516644
2879.6992481203006,1.4575233022636485,0.13288948069241013,-0.19280958721704394
2882.205513784461,1.492143808255659,0.14913448735019974,-0.2047936085219707
2884.7117794486217,1.5155792276964049,0.17017310252996004,-0.20905459387483355
2887.218045112782,1.5552596537949401,0.1885486018641811,-0.21544607190412782
2889.7243107769423,1.5824234354194406,0.17789613848202396,-0.21544607190412782
2892.2305764411026,1.6098535286284954,0.18561917443408787,-0.21358189081225032
2894.7368421052633,1.6311584553928096,0.1904127829560586,-0.21491344873501997
2897.2431077694237,1.6609853528628495,0.20426098535286286,-0.2229027962716378
2899.749373433584,1.6910785619174433,0.2103861517976032,-0.22450066577896138
2902.2556390977443,1.714513981358189,0.21091877496671105,-0.23062583222370173
2904.7619047619046,1.7379494007989347,0.2207723035952064,-0.22237017310252996
2907.268170426065,1.7781624500665778,0.22876165113182423,-0.22423435419440746
2909.7744360902257,1.8119840213049268,0.23675099866844207,-0.22982689747003995
2912.280701754386,1.8495339547270306,0.22902796271637815,-0.22982689747003995
2914.7869674185463,1.8894806924101197,0.2284953395472703,-0.24713715046604529
2917.2932330827066,1.9203728362183754,0.23355525965379495,-0.251930758988016
2919.7994987468674,1.9568575233022636,0.23941411451398137,-0.25938748335552597
2922.3057644110277,1.9912117177097204,0.23355525965379495,-0.25778961384820237
2924.812030075188,2.0284953395472702,0.23195739014647138,-0.26897470039946736
2927.3182957393483,2.078029294274301,0.2340878828229028,-0.28868175765645804
2929.8245614035086,2.1278295605858855,0.23568575233022637,-0.29027962716378164
2932.330827067669,2.17896138482024,0.23249001331557922,-0.3003994673768309
2934.8370927318297,2.244474034620506,0.22050599201065246,-0.30785619174434087
2937.34335839599,2.300133155792277,0.2218375499334221,-0.3121171770972037
2939.8496240601503,2.362982689747004,0.2191744340878828,-0.3270306258322237
2942.3558897243106,2.425299600532623,0.20559254327563248,-0.33288948069241014
2944.8621553884714,2.480426098535286,0.20346205059920106,-0.3467376830892144
2947.3684210526317,2.526231691078562,0.23382157123834887,-0.35659121171770974
2949.874686716792,2.569906790945406,0.22929427430093208,-0.3717709720372836
2952.3809523809523,2.6162450066577896,0.22689747003994673,-0.38721704394141143
2954.8872180451126,2.678029294274301,0.2434087882822903,-0.3957390146471372
2957.393483709273,2.741411451398136,0.2455392809587217,-0.41118508655126496
2959.8997493734337,2.804260985352863,0.2378162450066578,-0.4274300932090546
2962.406015037594,2.878029294274301,0.2378162450066578,-0.437017310252996
2964.9122807017543,2.9467376830892142,0.2095872170439414,-0.4306258322237017
2967.4185463659146,3.013848202396804,0.2189081225033289,-0.43621837549933423
2969.9248120300754,3.070838881491345,0.2151797603195739,-0.45459387483355523
2972.4310776942357,3.1416777629826895,0.21651131824234354,-0.46870838881491345
2974.937343358396,3.174700399467377,0.2197070572569907,-0.4806924101198402
2977.4436090225563,3.2159786950732356,0.2197070572569907,-0.4830892143808256
2979.9498746867166,3.2519307589880158,0.19174434087882822,-0.48655126498002665
2982.456140350877,3.2820239680426098,0.17177097203728361,-0.4982689747003995
2984.9624060150377,3.2956058588548602,0.16191744340878828,-0.5051930758988016
2987.468671679198,3.3049267643142475,0.1496671105193076,-0.5177097203728362
2989.9749373433583,3.3006657789613847,0.1448735019973369,-0.5267643142476698
2992.4812030075186,3.312383488681758,0.12436750998668442,-0.5339547270306259
2994.9874686716794,3.329960053262317,0.11611185086551265,-0.5384820239680426
2997.4937343358397,3.3227696404793607,0.11504660452729694,-0.5531291611185086
3000,3.337683089214381,0.10492676431424768,-0.5438082556591212
3002.5510204081634,3.3272969374167776,0.08974700399467377,-0.5358189081225033
3005.1020408163267,3.329693741677763,0.08388814913448735,-0.5350199733688416
3007.6530612244896,3.3272969374167776,0.08202396804260985,-0.5419440745672437
3010.204081632653,3.3209054593874834,0.06551264980026632,-0.5358189081225033
3012.7551020408164,3.313981358189081,0.06498002663115846,-0.5225033288948069
3015.3061224489797,3.2878828229027963,0.0559254327563249,-0.5161118508655127
3017.8571428571427,3.24340878828229,0.04447403462050599,-0.5129161118508655
3020.408163265306,3.2127829560585885,0.03302263648468708,-0.5105193075898802
3022.9591836734694,3.152330226364847,0.03249001331557923,-0.49906790945406126
3025.5102040816328,3.103861517976032,0.016245006657789614,-0.49347536617842874
3028.061224489796,3.0748335552596537,0.010386151797603195,-0.49906790945406126
3030.612244897959,3.0205059920106523,-0.003195739014647137,-0.4766977363515313
3033.1632653061224,2.9709720372836217,-0.00559254327563249,-0.4684420772303595
3035.714285714286,2.926498002663116,0.0013315579227696406,-0.46391478029294275
3038.265306122449,2.8705725699067908,-0.009054593874833556,-0.4484687083888149
3040.816326530612,2.8268974700399467,-0.02663115845539281,-0.4292942743009321
3043.3673469387754,2.777097203728362,-0.026897470039946737,-0.42237017310252994
3045.918367346939,2.722503328894807,-0.03541944074567244,-0.42423435419440747
3048.469387755102,2.6537949400798935,-0.03488681757656458,-0.4007989347536618
3051.0204081632655,2.603195739014647,-0.03089214380825566,-0.3904127829560586
3053.5714285714284,2.5379494007989347,-0.03541944074567244,-0.3725699067909454
3056.122448979592,2.4543275632490014,-0.04367509986684421,-0.34913448735019975
3058.673469387755,2.39254327563249,-0.047137150466045274,-0.3374167776298269
3061.2244897959185,2.303861517976032,-0.034087882822902794,-0.32250332889480693
3063.7755102040815,2.2242343541944076,-0.03648468708388815,-0.31051930758988017
3066.326530612245,2.140612516644474,-0.03169107856191744,-0.28122503328894805
3068.877551020408,2.062583222370173,-0.04047936085219707,-0.26790945406125166
3071.4285714285716,1.9893475366178428,-0.022103861517976033,-0.2511318242343542
3073.9795918367345,1.9358189081225032,-0.026098535286284953,-0.23994673768308922
3076.530612244898,1.867376830892144,-0.01970705725699068,-0.23195739014647138
3079.081632653061,1.8205059920106526,-0.021571238348868177,-0.21464713715046604
3081.6326530612246,1.7933422103861518,-0.018109187749667112,-0.20026631158455394
3084.183673469388,1.763781624500666,-0.017576564580559253,-0.19067909454061252
3086.734693877551,1.7451398135818907,-0.025565912117177098,-0.17869507323568576
3089.285714285714,1.737150466045273,-0.012782956058588549,-0.1904127829560586
3091.8367346938776,1.7350199733688416,-0.022103861517976033,-0.19174434087882822
3094.387755102041,1.7387483355525966,-0.021571238348868177,-0.19387483355525964
3096.938775510204,1.7416777629826898,-0.010652463382157125,-0.20133155792276963
3099.4897959183672,1.7691078561917444,0.006657789613848202,-0.19760319573901464
3102.0408163265306,1.8066577896138483,0.0021304926764314247,-0.20639147802929428
3104.591836734694,1.84474034620506,0.006391478029294274,-0.21091877496671105
3107.1428571428573,1.899600532623169,0.0037283621837549932,-0.20745672436750998
3109.6938775510203,1.9427430093209055,0.006391478029294274,-0.21251664447403462
3112.2448979591836,1.988814913448735,0.01411451398135819,-0.22583222370173103
3114.795918367347,2.0274300932090545,0.013315579227696404,-0.22583222370173103
3117.3469387755104,2.0604527296937416,0.011451398135818908,-0.2189081225033289
3119.8979591836733,2.077762982689747,0.016245006657789614,-0.22396804260985353
3122.4489795918366,2.1030625832223704,0.010119840213049267,-0.21278295605858855
3125,2.127296937416778,0.01944074567243675,-0.2197070572569907
3127.5510204081634,2.1416777629826895,0.005326231691078562,-0.2229027962716378
3130.1020408163267,2.1560585885486017,0.004527296937416778,-0.21198402130492677
3132.6530612244896,2.1637816245006656,0.0015978695073235686,-0.21384820239680427
3135.204081632653,2.180559254327563,-0.014647137150466045,-0.2159786950732357
3137.7551020408164,2.180292942743009,-0.014647137150466045,-0.2095872170439414
3140.3061224489797,2.174167776298269,-0.026897470039946737,-0.20798934753661785
3142.8571428571427,2.1912117177097206,-0.027430093209054592,-0.19467376830892144
3145.408163265306,2.1837549933422102,-0.04687083888149134,-0.18348868175765645
3147.9591836734694,2.1842876165113183,-0.04846870838881491,-0.19201065246338217
3150.5102040816328,2.177097203728362,-0.04687083888149134,-0.16511318242343542
3153.0612244897957,2.168042609853529,-0.028761651131824235,-0.14460719041278294
3155.612244897959,2.1496671105193075,-0.05752330226364847,-0.12436750998668442
3158.1632653061224,2.107856191744341,-0.04367509986684421,-0.10838881491344873
3160.714285714286,2.0697736351531293,-0.03675099866844208,-0.09400798934753662
3163.265306122449,2.0093209054593877,-0.03861517976031957,-0.08282290279627164
3165.816326530612,1.944074567243675,-0.035153129161118506,-0.08548601864181092
3168.3673469387754,1.8780292942743009,-0.03968042609853529,-0.06524633821571238
3170.918367346939,1.8103861517976032,-0.05139813581890812,-0.05645805592543276
3173.469387755102,1.7587217043941412,-0.05938748335552597,-0.047137150466045274
3176.0204081632655,1.7009320905459389,-0.05059920106524634,-0.028761651131824235
3178.5714285714284,1.6498002663115845,-0.05033288948069241,-0.007723035952063915
3181.122448979592,1.600266311584554,-0.04474034620505992,0.0010652463382157123
3183.673469387755,1.5829560585885487,-0.035153129161118506,0.014380825565912117
3186.2244897959185,1.5472703062583222,-0.040745672436751,0.02529960053262317
3188.7755102040815,1.5403462050599201,-0.04154460719041278,0.038348868175765646
3191.326530612245,1.5304926764314248,-0.03914780292942743,0.036218375499334224
3193.877551020408,1.5454061251664448,-0.04367509986684421,0.040213049267643144
3196.4285714285716,1.5472703062583222,-0.04287616511318242,0.0388814913448735
3198.9795918367345,1.5683089214380825,-0.03568575233022637,0.05858854860186418
3201.530612244898,1.573901464713715,-0.037283621837549935,0.06524633821571238
3204.081632653061,1.5970705725699068,-0.03488681757656458,0.052197070572569906
3206.6326530612246,1.6167776298268974,-0.03302263648468708,0.07003994673768309
3209.183673469388,1.640479360852197,-0.02636484687083888,0.06790945406125166
3211.734693877551,1.6679094540612516,-0.01970705725699068,0.07137150466045274
3214.285714285714,1.7137150466045272,-0.027163781624500664,0.07270306258322237
3216.8367346938776,1.7547270306258322,-0.02237017310252996,0.08575233022636485
3219.387755102041,1.802929427430093,-0.026897470039946737,0.0833555259653795
3221.938775510204,1.8745672436751,-0.020505992010652462,0.09347536617842876
3224.4897959183672,1.9347536617842875,-0.021571238348868177,0.09773635153129161
3227.0408163265306,1.9901464713715047,-0.01651131824234354,0.09773635153129161
3229.591836734694,2.037549933422104,-0.01544607190412783,0.09560585885486018
3232.1428571428573,2.0934753661784287,-0.01118508655126498,0.09906790945406126
3234.6938775510203,2.1438082556591214,-0.012782956058588549,0.1051930758988016
3237.2448979591836,2.1842876165113183,-0.01118508655126498,0.11318242343541944
3239.795918367347,2.2268974700399466,0.0007989347536617843,0.12703062583222371
3242.3469387755104,2.2503328894806924,-0.01651131824234354,0.12543275632490014
3244.8979591836733,2.301464713715047,-0.009587217043941412,0.12410119840213049
3247.4489795918366,2.3246338215712385,-0.018641810918774968,0.11984021304926765
3250,2.3611185086551263,-0.018109187749667112,0.12569906790945407
3252.5510204081634,2.3754993342210384,-0.015712383488681758,0.12942743009320906
3255.1020408163267,2.3933422103861517,-0.017310252996005325,0.13874833555259652
3257.6530612244896,2.4015978695073237,-0.007723035952063915,0.13075898801597868
3260.204081632653,2.3882822902796272,-0.019973368841544607,0.12383488681757657
3262.7551020408164,2.373901464713715,-0.004793608521970706,0.13528628495339548
3265.3061224489797,2.3504660452729693,-0.01411451398135819,0.14141145139813582
3267.8571428571427,2.3211717709720374,-0.008521970705725699,0.14007989347536617
3270.408163265306,2.2849533954727033,-0.012250332889480693,0.1496671105193076
3272.9591836734694,2.241810918774967,-0.015978695073235686,0.1584553928095872
3275.5102040816328,2.202396804260985,-0.002929427430093209,0.17470039946737684
3278.0612244897957,2.136884154460719,-0.007989347536617843,0.17603195739014646
3280.612244897959,2.100133155792277,-0.010386151797603195,0.1858854860186418
3283.1632653061224,2.059920106524634,-0.014913448735019973,0.1981358189081225
3285.714285714286,2.015179760319574,-0.01118508655126498,0.20133155792276963
3288.265306122449,1.9635153129161118,-0.003195739014647137,0.21731025299600532
3290.816326530612,1.933422103861518,0.002396804260985353,0.23169107856191745
3293.3673469387754,1.8969374167776298,0.003195739014647137,0.23089214380825565
3295.918367346939,1.862849533954727,-0.007723035952063915,0.23355525965379495
3298.469387755102,1.8391478029294275,-0.0037283621837549932,0.22796271637816246
3301.0204081632655,1.8127829560585886,-0.009054593874833556,0.22263648468708389
3303.5714285714284,1.8061251664447404,0.00985352862849534,0.2170439414114514
3306.122448979592,1.796005326231691,0.005326231691078562,0.2178428761651132
3308.673469387755,1.8093209054593875,0.011717709720372836,0.20399467376830893
3311.2244897959185,1.8247669773635153,0.011451398135818908,0.1922769640479361
3313.7755102040815,1.858854860186418,0.015712383488681758,0.18268974700399468
3316.326530612245,1.9043941411451397,0.008521970705725699,0.17123834886817577
3318.877551020408,1.977896138482024,0.01970705725699068,0.159254327563249
3321.4285714285716,2.0418109187749667,0.023968042609853527,0.1459387483355526
3323.9795918367345,2.138215712383489,0.011984021304926764,0.15073235685752331
3326.530612244898,2.230625832223702,0.021571238348868177,0.1467376830892144
3329.081632653061,2.3131824234354195,0.022103861517976033,0.13102529960053264
3331.6326530612246,2.4106524633821573,0.014913448735019973,0.13715046604527298
3334.183673469388,2.4921438082556593,0.00825565912117177,0.12756324900133156
3336.734693877551,2.554194407456724,0.01677762982689747,0.1336884154460719
3339.285714285714,2.6162450066577896,0.01944074567243675,0.13262316910785618
3341.8367346938776,2.667376830892144,0.010119840213049267,0.1392809587217044
3344.387755102041,2.689214380825566,0.00559254327563249,0.13235685752330226
3346.9387755102043,2.7209054593874833,0,0.1374167776298269
3349.4897959183672,2.729960053262317,0.003195739014647137,0.13022636484687083
3352.0408163265306,2.7318242343541943,-0.005326231691078562,0.13448735019973368
3354.591836734694,2.751797603195739,-0.0010652463382157123,0.1422103861517976
3357.142857142857,2.7573901464713715,-0.008521970705725699,0.14354194407456725
3359.6938775510203,2.7430093209054593,-0.011717709720372836,0.14167776298268975
3362.2448979591836,2.72676431424767,-0.013848202396804262,0.1366178428761651
3364.795918367347,2.7163781624500665,-0.00559254327563249,0.15286284953395474
3367.3469387755104,2.695339547270306,-0.006657789613848202,0.14354194407456725
3369.8979591836733,2.6873501997336886,-0.017576564580559253,0.12969374167776299
3372.4489795918366,2.6524633821571237,-0.025033288948069242,0.13422103861517976
3375,2.633022636484687,-0.024234354194407455,0.12889480692410119
3377.5510204081634,2.615179760319574,-0.03648468708388815,0.13022636484687083
3380.1020408163267,2.593075898801598,-0.03781624500665779,0.13715046604527298
3382.6530612244896,2.57017310252996,-0.0426098535286285,0.12862849533954726
3385.204081632653,2.5382157123834888,-0.03941411451398136,0.1318242343541944
3387.7551020408164,2.5129161118508656,-0.04234354194407457,0.1214380825565912
3390.3061224489797,2.4836218375499333,-0.037283621837549935,0.11504660452729694
3392.8571428571427,2.443941411451398,-0.041278295605858856,0.10359520639147803
3395.408163265306,2.3917443408788284,-0.04553928095872171,0.10812250332889481
3397.9591836734694,2.363249001331558,-0.04154460719041278,0.08681757656458056
3400.5102040816328,2.33288948069241,-0.03089214380825566,0.08495339547270306
3403.0612244897957,2.2820239680426098,-0.03781624500665779,0.06950732356857524
3405.612244897959,2.248202396804261,-0.034087882822902794,0.06631158455392809
3408.1632653061224,2.190146471371505,-0.033288948069241014,0.04287616511318242
3410.714285714286,2.129693741677763,-0.04207723035952064,0.044207723035952065
3413.265306122449,2.081225033288948,-0.04580559254327563,0.030093209054593874
3415.816326530612,2.0135818908122505,-0.04447403462050599,0.02343541944074567
3418.3673469387754,1.9563249001331557,-0.03462050599201065,0.025033288948069242
3420.918367346939,1.8889480692410119,-0.03568575233022637,0.0021304926764314247
3423.469387755102,1.8042609853528628,-0.03169107856191744,-0.0002663115845539281
3426.0204081632655,1.744607190412783,-0.03861517976031957,0.0037283621837549932
3428.5714285714284,1.6966711051930758,-0.03275632490013316,-0.014913448735019973
3431.122448979592,1.6532623169107856,-0.01970705725699068,-0.012782956058588549
3433.673469387755,1.5984021304926763,-0.020505992010652462,-0.025832223701731025
3436.2244897959185,1.5600532623169108,-0.010386151797603195,-0.019174434087882823
3438.7755102040815,1.4980026631158456,-0.02103861517976032,-0.01651131824234354
3441.326530612245,1.4399467376830892,-0.011717709720372836,-0.022636484687083888
3443.877551020408,1.374167776298269,-0.00985352862849534,-0.021837549933422105
3446.4285714285716,1.2985352862849533,-0.012250332889480693,-0.035153129161118506
3448.9795918367345,1.2287616511318242,-0.02343541944074567,-0.03595206391478029
3451.530612244898,1.1597869507323568,-0.01411451398135819,-0.03541944074567244
3454.081632653061,1.1027962716378163,-0.021571238348868177,-0.03781624500665779
3456.6326530612246,1.0490013315579227,-0.033288948069241014,-0.04553928095872171
3459.183673469388,1.0087882822902796,-0.03675099866844208,-0.04660452729693742
3461.734693877551,0.9677762982689747,-0.05352862849533955,-0.05352862849533955
3464.285714285714,0.9496671105193076,-0.04447403462050599,-0.059121171770972036
3466.8367346938776,0.9531291611185086,-0.055126498002663116,-0.0758988015978695
3469.387755102041,0.9587217043941412,-0.047137150466045274,-0.06950732356857524
3471.9387755102043,0.9848202396804261,-0.054061251664447404,-0.07856191744340879
3474.4897959183672,1.0229027962716377,-0.05352862849533955,-0.08415446071904129
3477.0408163265306,1.0833555259653795,-0.05379494007989347,-0.09800266311584555
3479.591836734694,1.132623169107856,-0.0559254327563249,-0.10625832223701731
3482.142857142857,1.189347536617843,-0.054061251664447404,-0.10652463382157124
3484.6938775510203,1.243941411451398,-0.043941411451398134,-0.10972037283621837
3487.2448979591836,1.2862849533954728,-0.04607190412782956,-0.12889480692410119
3489.795918367347,1.3278295605858854,-0.04340878828229028,-0.13342210386151798
3492.3469387755104,1.358721704394141,-0.05193075898801598,-0.14700399467376832
3494.8979591836733,1.3528628495339547,-0.0758988015978695,-0.1440745672436751
3497.4489795918366,1.3565912117177097,-0.07936085219707058,-0.14727030625832224
3500,1.3291611185086551,-0.08442077230359521,-0.151797603195739
3502.5510204081634,1.2748335552596537,-0.0929427430093209,-0.15792276964047935
3505.1020408163267,1.2101198402130493,-0.09054593874833555,-0.15978695073235685
3507.6530612244896,1.1416777629826897,-0.09107856191744342,-0.15472703062583223
3510.204081632653,1.0503328894806925,-0.08681757656458056,-0.16058588548601865
3512.7551020408164,0.948069241011984,-0.09374167776298269,-0.16511318242343542
3515.3061224489797,0.855659121171771,-0.11131824234354194,-0.1696404793608522
3517.857142857143,0.7691078561917444,-0.11105193075898802,-0.17123834886817577
3520.408163265306,0.6897470039946738,-0.11904127829560586,-0.18029294274300933
3522.9591836734694,0.6103861517976032,-0.12623169107856191,-0.1858854860186418
3525.5102040816328,0.5501997336884155,-0.1299600532623169,-0.1877496671105193
3528.0612244897957,0.5179760319573902,-0.11770972037283622,-0.18268974700399468
3530.612244897959,0.4780292942743009,-0.12649800266311584,-0.18695073235685752
3533.1632653061224,0.44260985352862847,-0.12516644474034622,-0.1858854860186418
3535.714285714286,0.42503328894806924,-0.12090545938748336,-0.1933422103861518
3538.265306122449,0.40905459387483356,-0.1374167776298269,-0.19387483355525964
3540.816326530612,0.3882822902796272,-0.13342210386151798,-0.21304926764314247
3543.3673469387754,0.38801597869507326,-0.15339547270306259,-0.21304926764314247
3545.918367346939,0.4055925432756325,-0.14194407456724367,-0.22716378162450065
3548.469387755102,0.45006657789613846,-0.15419440745672436,-0.2266311584553928
3551.0204081632655,0.5006657789613849,-0.14620505992010652,-0.23302263648468707
3553.5714285714284,0.5747003994673768,-0.14700399467376832,-0.24820239680426098
3556.122448979592,0.6660452729693742,-0.15419440745672436,-0.24980026631158456
3558.673469387755,0.7544607190412783,-0.1440745672436751,-0.2436750998668442
3561.224489795918,0.8521970705725699,-0.13794940079893475,-0.2511318242343542
3563.7755102040815,0.9504660452729694,-0.1403462050599201,-0.25805592543275635
3566.326530612245,1.0535286284953396,-0.13981358189081225,-0.2684420772303595
3568.877551020408,1.1304926764314247,-0.14247669773635152,-0.26391478029294274
3571.4285714285716,1.2058588548601865,-0.14380825565912117,-0.26498002663115844
3573.9795918367345,1.2644474034620505,-0.13794940079893475,-0.27057256990679096
3576.530612244898,1.3249001331557924,-0.15312916111850866,-0.25938748335552597
3579.081632653061,1.3581890812250332,-0.14540612516644474,-0.2673768308921438
3581.6326530612246,1.4085219707057257,-0.15392809587217043,-0.26764314247669774
3584.183673469388,1.4543275632490014,-0.16537949400798935,-0.26524633821571236
3586.734693877551,1.5065246338215712,-0.1762982689747004,-0.2625832223701731
3589.285714285714,1.559786950732357,-0.17789613848202396,-0.2644474034620506
3591.8367346938776,1.5986684420772304,-0.19467376830892144,-0.2711051930758988
3594.387755102041,1.6420772303595206,-0.22450066577896138,-0.2798934753661784
3596.9387755102043,1.6772303595206393,-0.23834886817576564,-0.27536617842876165
3599.4897959183672,1.7099866844207723,-0.24314247669773636,-0.27536617842876165
3602.0408163265306,1.726231691078562,-0.24766977363515313,-0.27163781624500666
3604.591836734694,1.7456724367509986,-0.27030625832223704,-0.26790945406125166
3607.142857142857,1.7834886817576565,-0.2748335552596538,-0.2681757656458056
3609.6938775510203,1.8279627163781624,-0.29134487350199734,-0.26151797603195737
3612.2448979591836,1.867376830892144,-0.29427430093209056,-0.24953395472703063
3614.795918367347,1.9227696404793608,-0.30279627163781625,-0.24101198402130491
3617.3469387755104,1.966711051930759,-0.307323568575233,-0.2351531291611185
3619.8979591836733,2.0021304926764314,-0.3134487350199734,-0.22130492676431424
3622.4489795918366,2.032756324900133,-0.31637816245006656,-0.21651131824234354
3625,2.0793608521970706,-0.3272969374167776,-0.20532623169107855
3627.5510204081634,2.1075898801597868,-0.33022636484687085,-0.1970705725699068
3630.1020408163267,2.137949400798935,-0.3347536617842876,-0.1762982689747004
3632.6530612244896,2.1350199733688418,-0.344607190412783,-0.17310252996005326
3635.204081632653,2.1310252996005326,-0.3403462050599201,-0.1440745672436751
3637.7551020408164,2.0945406125166444,-0.3272969374167776,-0.1318242343541944
3640.3061224489793,2.043675099866844,-0.3233022636484687,-0.12090545938748336
3642.857142857143,1.952063914780293,-0.30279627163781625,-0.09880159786950732
3645.408163265306,1.8431424766977365,-0.27137150466045273,-0.081491344873502
3647.9591836734694,1.7238348868175766,-0.26125166444740344,-0.06151797603195739
3650.5102040816328,1.588548601864181,-0.24953395472703063,-0.04181091877496671
3653.0612244897957,1.4639147802929426,-0.24207723035952064,-0.023169107856191744
3655.612244897959,1.343808255659121,-0.24047936085219707,-0.005059920106524634
3658.1632653061224,1.2434087882822902,-0.21544607190412782,0.015712383488681758
3660.714285714286,1.1603195739014647,-0.19653794940079894,0.03488681757656458
3663.265306122449,1.0918774966711051,-0.1914780292942743,0.044207723035952065
3665.816326530612,1.0420772303595207,-0.19280958721704394,0.06551264980026632
3668.3673469387754,1.018908122503329,-0.17177097203728361,0.07137150466045274
3670.918367346939,1.0242343541944074,-0.16005326231691078,0.07696404793608522
3673.469387755102,1.066844207723036,-0.1584553928095872,0.07456724367509987
3676.0204081632655,1.132623169107856,-0.15978695073235685,0.08628495339547271
3678.5714285714284,1.2119840213049267,-0.1499334221038615,0.06817576564580559
3681.122448979592,1.2945406125166445,-0.14940079893475366,0.07563249001331558
3683.673469387755,1.3848202396804261,-0.15472703062583223,0.07137150466045274
3686.224489795918,1.4868175765645806,-0.162982689747004,0.06418109187749667
3688.7755102040815,1.5802929427430092,-0.1659121171770972,0.06391478029294274
3691.326530612245,1.6727030625832224,-0.16324900133155792,0.05992010652463382
3693.877551020408,1.7587217043941412,-0.16005326231691078,0.05459387483355526
3696.4285714285716,1.8434087882822903,-0.15419440745672436,0.05565912117177097
3698.9795918367345,1.9067909454061251,-0.15952063914780293,0.04846870838881491
3701.530612244898,1.9784287616511318,-0.14940079893475366,0.047137150466045274
3704.081632653061,2.036484687083888,-0.1411451398135819,0.03249001331557923
3706.6326530612246,2.078561917443409,-0.15392809587217043,0.03355525965379494
3709.183673469388,2.118242343541944,-0.14727030625832224,0.036218375499334224
3711.734693877551,2.1536617842876167,-0.15978695073235685,0.029826897470039946
3714.285714285714,2.203994673768309,-0.15872170439414116,0.022902796271637816
3716.8367346938776,2.260719041278296,-0.15312916111850866,0.017310252996005325
3719.387755102041,2.3126498002663114,-0.15233022636484686,0.021837549933422105
3721.9387755102043,2.369906790945406,-0.1752330226364847,0.024500665778961386
3724.4897959183672,2.441544607190413,-0.16431424766977362,0.022103861517976033
3727.0408163265306,2.4934753661784286,-0.17256990679094542,0.01544607190412783
3729.591836734694,2.5547270306258323,-0.16191744340878828,0.022902796271637816
3732.142857142857,2.593608521970706,-0.16697736351531292,0.03568575233022637
3734.6938775510203,2.624766977363515,-0.166711051930759,0.033288948069241014
3737.2448979591836,2.665512649800266,-0.17203728362183754,0.02929427430093209
3739.795918367347,2.7017310252996007,-0.17256990679094542,0.022902796271637816
3742.3469387755104,2.7430093209054593,-0.1829560585885486,0.02636484687083888
3744.8979591836733,2.774434087882823,-0.1696404793608522,0.038348868175765646
3747.4489795918366,2.788548601864181,-0.1648468708388815,0.034087882822902794
3750,2.796271637816245,-0.1573901464713715,0.03861517976031957
3752.5510204081634,2.782157123834887,-0.13688415446071905,0.040213049267643144
3755.1020408163267,2.7579227696404796,-0.12410119840213049,0.04447403462050599
3757.6530612244896,2.7171770972037286,-0.10545938748335552,0.045272969374167776
3760.204081632653,2.6532623169107854,-0.09507323568575234,0.04900133155792277
3762.7551020408164,2.562982689747004,-0.08015978695073235,0.04766977363515313
3765.3061224489793,2.4529960053262316,-0.05059920106524634,0.052197070572569906
3767.857142857143,2.3206391478029293,-0.02130492676431425,0.06870838881491345
3770.408163265306,2.1944074567243677,-0.0151797603195739,0.06817576564580559
3772.9591836734694,2.045539280958722,-0.0005326231691078562,0.07350199733688416
3775.5102040816328,1.9201065246338216,0.024766977363515314,0.07936085219707058
3778.0612244897957,1.7946737683089213,0.04207723035952064,0.07909454061251664
3780.612244897959,1.6804260985352863,0.06364846870838882,0.09187749667110519
3783.1632653061224,1.5693741677762982,0.0559254327563249,0.08575233022636485
3785.714285714286,1.4764314247669774,0.07376830892143808,0.09001331557922769
3788.265306122449,1.4098535286284954,0.07163781624500666,0.08122503328894808
3790.816326530612,1.3416777629826897,0.08175765645805592,0.07030625832223701
3793.3673469387754,1.2950732356857524,0.09214380825565913,0.04766977363515313
3795.918367346939,1.2580559254327564,0.09986684420772303,0.04846870838881491
3798.469387755102,1.233288948069241,0.09906790945406126,0.04553928095872171
3801.0204081632655,1.2245006657789614,0.09906790945406126,0.02103861517976032
3803.5714285714284,1.2130492676431426,0.10013315579227697,0.013315579227696404
3806.122448979592,1.2226364846870839,0.1014647137150466,-0.007989347536617843
3808.673469387755,1.2532623169107857,0.09054593874833555,-0.02663115845539281
3811.224489795918,1.2942743009320905,0.07137150466045274,-0.0474034620505992
3813.7755102040815,1.3499334221038615,0.06018641810918775,-0.057789613848202394
3816.326530612245,1.404260985352863,0.050865512649800264,-0.0711051930758988
3818.877551020408,1.4721704394141144,0.0492676431424767,-0.08788282290279627
3821.4285714285716,1.5272969374167775,0.04047936085219707,-0.10599201065246339
3823.9795918367345,1.5941411451398135,0.026897470039946737,-0.12490013315579228
3826.530612244898,1.6575233022636484,0.03462050599201065,-0.13262316910785618
3829.081632653061,1.7230359520639147,0.037017310252996004,-0.14647137150466044
3831.6326530612246,1.8079893475366178,0.0388814913448735,-0.1648468708388815
3834.183673469388,1.8836218375499334,0.03675099866844208,-0.1715046604527297
3836.734693877551,1.9675099866844208,0.0237017310252996,-0.18508655126498003
3839.285714285714,2.044207723035952,0.029027962716378163,-0.1904127829560586
3841.8367346938776,2.1153129161118507,0.04207723035952064,-0.19840213049267644
3844.387755102041,2.166977363515313,0.034087882822902794,-0.20319573901464713
3846.9387755102043,2.218375499334221,0.040213049267643144,-0.1978695073235686
3849.4897959183672,2.2609853528628494,0.0303595206391478,-0.20825565912117178
